"","subject","correct_judgment","button_expected","pic_file","trial","button_pressed","button_press_time","display_on_time","rt","response_accuracy","particle","version","sentence","logRT","foc","congruence"
"1","v1p1","no","2","1_filler-no_Trgt-3_eat.png","33","2","623233.00","620993.17",2239,"correct","filler","1","Miś zjadł parę arbuzów.",7.71378461659875,"obj","incongruent"
"2","v1p1","no","2","1_most-no-sfof_trgt6_eat.png","14","2","328572.00","326810.20",1761,"correct","most","1","Najwięcej pies zjadł rogalików.",7.47363710849621,"obj","incongruent"
"3","v1p1","no","2","10_filler-no_Trgt-3_find.png","71","2","1080798.00","1077133.39",3664,"correct","filler","1","Miś znalazł cztery wieszaki.",8.20631072579402,"obj","incongruent"
"4","v1p1","no","2","10_most-no-sfof_trgt3_find.png","8","2","269219.00","267030.36",2188,"correct","most","1","Najwięcej zegarków znalazł pies.",7.69074316354187,"subj","incongruent"
"5","v1p1","no","2","11_filler-no_Trgt-5_catch.png","94","2","1367758.00","1363716.80",4041,"correct","filler","1","Pies złapał kilka żabek.",8.30424746507847,"obj","incongruent"
"6","v1p1","no","2","11_obj-nichtnur-no_trgt5_catch.png","86","2","1291549.00","1287937.86",3611,"correct","only","1","Królik złapał nie tylko motyle.",8.19174002127746,"obj","incongruent"
"7","v1p1","no","2","12_filler-no_Trgt-6_catch.png","78","2","1148472.00","1145996.07",2475,"correct","filler","1","Osioł złapał cztery pająki.",7.81399567500279,"obj","incongruent"
"8","v1p1","no","2","12_subj-nichtnur-no_trgt3_catch.png","36","2","658355.00","655757.81",2597,"correct","only","1","Piłki złapał nie tylko osioł.",7.86211221166275,"subj","incongruent"
"9","v1p1","no","2","13_filler-no_Trgt-5_bring.png","70","2","1069836.00","1068167.26",1668,"correct","filler","1","Pies przyniósł trzy linijki.",7.41938058291869,"obj","incongruent"
"10","v1p1","no","2","13_most-no-sfof_trgt5_bring.png","11","2","298562.00","296378.65",2183,"correct","most","1","Najwięcej lew przyniósł gwoździ.",7.68845535654994,"obj","incongruent"
"11","v1p1","no","2","14_filler-no_Trgt-3_bring.png","20","4","398547.00","395672.89",2874,"incorrect","filler","1","Lew przyniósł pięć siekierek.",7.96346006663897,"obj","incongruent"
"12","v1p1","no","2","14_most-no-sfof_trgt5_bring.png","81","2","1237541.00","1234457.61",3083,"correct","most","1","Najwięcej ołówków przyniósł prosiaczek.",8.03365842788615,"subj","incongruent"
"13","v1p1","no","2","15_filler-no_Trgt-6_paint.png","37","2","667250.00","664657.29",2592,"correct","filler","1","Prosiaczek namalował pięć krzyżyków.",7.86018505747217,"obj","incongruent"
"14","v1p1","no","2","15_obj-nichtnur-no_trgt6_paint.png","76","2","1129255.00","1126130.57",3124,"correct","only","1","Osioł namalował nie tylko słonka.",8.04686951095958,"obj","incongruent"
"15","v1p1","no","2","16_filler-no_Trgt-5_paint.png","57","2","939268.00","936874.86",2393,"correct","filler","1","Osioł namalował cztery drzewka.",7.78030308790837,"obj","incongruent"
"16","v1p1","no","2","16_subj-nichtnur-no_trgt5_paint.png","77","2","1140130.00","1135496.67",4633,"correct","only","1","Trójkąty namalował nie tylko osioł.",8.44095988541665,"subj","incongruent"
"17","v1p1","no","2","17_filler-no_Trgt-6_take.png","46","2","754983.00","751735.58",3247,"correct","filler","1","Królik zabrał cztery świeczki.",8.08548677210285,"obj","incongruent"
"18","v1p1","no","2","17_most-no-sfof_trgt3_take.png","31","2","602780.00","599344.41",3435,"correct","most","1","Najwięcej pies zabrał pudełek.",8.14177220465645,"obj","incongruent"
"19","v1p1","no","2","18_filler-no_Trgt-5_take.png","59","2","961707.00","958556.95",3150,"correct","filler","1","Królik zabrał sześć markerów.",8.05515773181968,"obj","incongruent"
"20","v1p1","no","2","18_most-no-sfof_trgt3_take.png","100","2","1436082.00","1432112.85",3969,"correct","most","1","Najwięcej książek zabrał osioł.",8.28626945278307,"subj","incongruent"
"21","v1p1","no","2","19_filler-no_Trgt-4_win.png","101","2","1444209.00","1442028.94",2180,"correct","filler","1","Miś wygrał trzy pisanki.",7.68708015578313,"obj","incongruent"
"22","v1p1","no","2","19_obj-nichtnur-no_trgt5_win.png","58","2","951686.00","945241.04",6444,"correct","only","1","Lew wygrał nie tylko lizaki.",8.77090474429687,"obj","incongruent"
"23","v1p1","no","2","2_filler-no_Trgt-5_eat.png","83","2","1260676.00","1257006.31",3669,"correct","filler","1","Miś zjadł kilka jabłek.",8.20767442435528,"obj","incongruent"
"24","v1p1","no","2","2_most-no-sfof_trgt5_eat.png","90","2","1329617.00","1326685.61",2931,"correct","most","1","Najwięcej ziemniaków zjadł lew.",7.98309894071089,"subj","incongruent"
"25","v1p1","no","2","20_filler-no_Trgt-3_win.png","24","2","446410.00","442270.19",4139,"correct","filler","1","Miś wygrał sześć medali.",8.32820949174873,"obj","incongruent"
"26","v1p1","no","2","20_subj-nichtnur-no_trgt6_win.png","60","2","970802.00","967856.40",2945,"correct","only","1","Gwiazdki wygrał nie tylko miś.",7.98786409608569,"subj","incongruent"
"27","v1p1","no","2","21_filler-no_Trgt-4_throw away.png","50","2","798844.00","796449.67",2394,"correct","filler","1","Osioł wyrzucił pięć smoczków.",7.78072088611792,"obj","incongruent"
"28","v1p1","no","2","21_most-no-sfof_trgt4_throw away.png","44","2","734882.00","732803.35",2078,"correct","most","1","Najwięcej prosiaczek wyrzucił czapek.",7.63916117165917,"obj","incongruent"
"29","v1p1","no","2","22_filler-no_Trgt-4_throw away.png","54","2","839391.00","837213.96",2177,"correct","filler","1","Pies wyrzucił sześć szminek.",7.68570306123455,"obj","incongruent"
"30","v1p1","no","2","22_most-no-sfof_trgt4_throw away.png","35","2","646615.00","644025.15",2589,"correct","most","1","Najwięcej misiów wyrzucił osioł.",7.85902697975154,"subj","incongruent"
"31","v1p1","no","2","23_filler-no_Trgt-5_steal.png","68","2","1049509.00","1047768.43",1740,"correct","filler","1","Lew ukradł trzy talerze.",7.46164039220858,"obj","incongruent"
"32","v1p1","no","2","23_obj-nichtnur-no_trgt4_steal.png","80","2","1227474.00","1221708.36",5765,"correct","only","1","Pies ukradł nie tylko cytryny.",8.65956043270316,"obj","incongruent"
"33","v1p1","no","2","24_filler-no_Trgt-4_steal.png","102","2","1455368.00","1451395.05",3972,"correct","filler","1","Prosiaczek ukradł sześć kapeluszy.",8.28702502516506,"obj","incongruent"
"34","v1p1","no","2","24_subj-nichtnur-no_trgt4_steal.png","47","4","766727.00","761218.36",5508,"incorrect","only","1","Noże ukradł nie tylko prosiaczek.",8.61395685984855,"subj","incongruent"
"35","v1p1","no","2","3_filler-no_Trgt-3_break.png","74","2","1108045.00","1105248.43",2796,"correct","filler","1","Osioł popsuł parę zegarów.",7.9359451033537,"obj","incongruent"
"36","v1p1","no","2","3_obj-nichtnur-no_trgt3_break.png","32","2","613501.00","610443.78",3057,"correct","only","1","Królik popsuł nie tylko telefony.",8.02518932189084,"obj","incongruent"
"37","v1p1","no","2","4_filler-no_Trgt-4_break.png","53","2","831159.00","825347.97",5811,"correct","filler","1","Pies popsuł kilka suszarek.",8.66750795207511,"obj","incongruent"
"38","v1p1","no","2","4_subj-nichtnur-no_trgt4_break.png","39","2","686098.00","683656.20",2441,"correct","only","1","Zszywacze popsuł nie tylko pies.",7.80016307039296,"subj","incongruent"
"39","v1p1","no","2","5_filler-no_Trgt-6_buy.png","79","2","1215976.00","1212742.21",3233,"correct","filler","1","Lew kupił kilka butelek.",8.08116577772543,"obj","incongruent"
"40","v1p1","no","2","5_most-no-sfof_trgt3_buy.png","51","2","808881.00","806832.39",2048,"correct","most","1","Najwięcej królik kupił pomidorów.",7.6246189861594,"obj","incongruent"
"41","v1p1","no","2","6_filler-no_Trgt-4_buy.png","61","2","979551.00","976705.87",2845,"correct","filler","1","Prosiaczek kupił kilka hotdogów.",7.95331834656043,"obj","incongruent"
"42","v1p1","no","2","6_most-no-sfof_trgt4_buy.png","23","2","433568.00","430020.90",3547,"correct","most","1","Najwięcej szczoteczek kupił królik.",8.17385745477362,"subj","incongruent"
"43","v1p1","no","2","7_filler-no_Trgt-3_collect.png","17","2","365590.00","360541.60",5048,"correct","filler","1","Lew zebrał parę róż.",8.52674740422105,"obj","incongruent"
"44","v1p1","no","2","7_obj-nichtnur-no_trgt6_collect.png","63","2","998191.00","995971.44",2219,"correct","only","1","Pies zebrał nie tylko grzyby.",7.70481192293259,"obj","incongruent"
"45","v1p1","no","2","8_filler-no_Trgt-6_collect.png","15","4","341693.00","334643.11",7049,"incorrect","filler","1","Prosiaczek zebrał kilka znaczków.",8.86064104177388,"obj","incongruent"
"46","v1p1","no","2","8_subj-nichtnur-no_trgt6_collect.png","16","2","354059.00","350408.84",3650,"correct","only","1","Kamienie zebrał nie tylko prosiaczek.",8.20248244657654,"subj","incongruent"
"47","v1p1","no","2","9_filler-no_Trgt-6_find.png","13","2","318864.00","315977.51",2886,"correct","filler","1","Królik znalazł trzy cygara.",7.96762673933382,"obj","incongruent"
"48","v1p1","no","2","9_most-no-sfof_trgt6_find.png","98","2","1415840.00","1412530.63",3309,"correct","most","1","Najwięcej osioł znalazł kluczy.",8.10440130792161,"obj","incongruent"
"49","v1p1","no","2","practice_4.png","6","4","180943.00","176968.91",3974,"incorrect","practice","1","Pies znalazł siedem kul.",8.28752842311176,"obj","incongruent"
"50","v1p1","no","2","practice_5.png","5","2","169611.00","166069.55",3541,"correct","practice","1","Osioł namalował wiele ludzików.",8.1721644521119,"obj","incongruent"
"51","v1p1","no","2","practice_6.png","1","2","128086.00","124971.93",3114,"correct","practice","1","Lew nie wygrał żadnych chorągiewek.",8.04366335239394,"obj","incongruent"
"52","v1p1","yes","4","1_filler-yes_Trgt-3_eat.png","97","4","1406678.00","1403231.18",3446,"correct","filler","1","Pies zjadł parę główek kapusty.",8.14496941708788,"obj","congruent"
"53","v1p1","yes","4","1_most-yes-sfot_trgt6_eat.png","69","2","1058051.00","1055667.96",2383,"incorrect","most","1","Najwięcej lew zjadł ciastek.",7.77611547709874,"obj","congruent"
"54","v1p1","yes","4","10_filler-yes_Trgt-3_find.png","21","4","410536.00","407705.52",2830,"correct","filler","1","Pies znalazł trzy żarówki.",7.94803199063728,"obj","congruent"
"55","v1p1","yes","4","10_most-yes-stot_trgt3_find.png","66","4","1028510.00","1026053.03",2456,"correct","most","1","Najwięcej okularów znalazł osioł.",7.80628928926703,"subj","congruent"
"56","v1p1","yes","4","11_filler-yes_Trgt-5_catch.png","85","4","1281745.00","1279438.35",2306,"correct","filler","1","Lew złapał dużo żabek.",7.743269700829,"obj","congruent"
"57","v1p1","yes","4","11_most-yes-sfot_trgt5_catch.png","18","4","377980.00","375540.72",2439,"correct","only","1","Królik złapał nie tylko biedronki.",7.79934339821592,"obj","congruent"
"58","v1p1","yes","4","12_filler-yes_Trgt-6_catch.png","9","4","277791.00","275046.55",2744,"correct","filler","1","Prosiaczek złapał sześć mrówek.",7.91717198884578,"obj","congruent"
"59","v1p1","yes","4","12_most-yes-stot_trgt3_catch.png","42","4","714119.00","711471.25",2647,"correct","only","1","Balony złapał nie tylko królik.",7.8811822022271,"subj","congruent"
"60","v1p1","yes","4","13_filler-yes_Trgt-5_bring.png","43","4","725512.00","721670.66",3841,"correct","filler","1","Lew przyniósł pięć długopisów.",8.2534880283459,"obj","congruent"
"61","v1p1","yes","4","13_most-yes-sfot_trgt5_bring.png","48","4","776592.00","774634.26",1957,"correct","most","1","Najwięcej miś przyniósł spinaczy.",7.57916796739608,"obj","congruent"
"62","v1p1","yes","4","14_filler-yes_Trgt-3_bring.png","25","4","457796.00","454436.14",3359,"correct","filler","1","Prosiaczek przyniósł trzy młotki.",8.11939858961229,"obj","congruent"
"63","v1p1","yes","4","14_most-yes-stot_trgt5_bring.png","10","4","287500.00","284879.32",2620,"correct","most","1","Najwięcej kredek przyniósł miś.",7.87092959675514,"subj","congruent"
"64","v1p1","yes","4","15_filler-yes_Trgt-6_paint.png","99","4","1426989.00","1422363.41",4625,"correct","filler","1","Królik namalował sześć kresek.",8.43923164994653,"obj","congruent"
"65","v1p1","yes","4","15_most-yes-sfot_trgt6_paint.png","73","4","1099148.00","1096498.95",2649,"correct","only","1","Osioł namalował nie tylko chmurki.",7.88193748927207,"obj","congruent"
"66","v1p1","yes","4","16_filler-yes_Trgt-5_paint.png","27","4","484981.00","481417.91",3563,"correct","filler","1","Miś namalował pięć kwiatków.",8.17835816560584,"obj","congruent"
"67","v1p1","yes","4","16_most-yes-stot_trgt5_paint.png","88","4","1308806.00","1306470.11",2335,"correct","only","1","Kółka namalował nie tylko pies.",7.755767170103,"subj","congruent"
"68","v1p1","yes","4","17_filler-yes_Trgt-6_take.png","92","4","1347852.00","1344867.90",2984,"correct","filler","1","Pies zabrał sześć zapałek.",8.00101996132365,"obj","congruent"
"69","v1p1","yes","4","17_most-yes-sfot_trgt3_take.png","95","2","1378054.00","1376282.74",1771,"incorrect","most","1","Najwięcej lew zabrał torebek.",7.47929963778283,"obj","congruent"
"70","v1p1","yes","4","18_filler-yes_Trgt-5_take.png","30","4","531390.00","527248.60",4141,"correct","filler","1","Osioł zabrał pięć piór.",8.32869258354557,"obj","congruent"
"71","v1p1","yes","4","18_most-yes-stot_trgt3_take.png","19","4","388419.00","383856.91",4562,"correct","most","1","Najwięcej zeszytów zabrał prosiaczek.",8.42551640284433,"subj","congruent"
"72","v1p1","yes","4","19_filler-yes_Trgt-4_win.png","38","4","676937.00","674540.06",2396,"correct","filler","1","Pies wygrał cztery kurczaczki.",7.78155595923534,"obj","congruent"
"73","v1p1","yes","4","19_most-yes-sfot_trgt5_win.png","84","4","1271517.00","1267455.71",4061,"correct","only","1","Lew wygrał nie tylko cukierki.",8.3091845276863,"obj","congruent"
"74","v1p1","yes","4","2_filler-yes_Trgt-5_eat.png","40","4","695189.00","692172.36",3016,"correct","filler","1","Lew zjadł dużo jabłek.",8.01168672912785,"obj","congruent"
"75","v1p1","yes","4","2_most-yes-stot_trgt5_eat.png","7","4","259676.00","257064.27",2611,"correct","most","1","Najwięcej ogórków zjadł prosiaczek.",7.86748856869913,"subj","congruent"
"76","v1p1","yes","4","20_filler-yes_Trgt-3_win.png","87","4","1299502.00","1297370.65",2131,"correct","filler","1","Lew wygrał trzy puchary.",7.66434663209862,"obj","congruent"
"77","v1p1","yes","4","20_most-yes-stot_trgt6_win.png","96","4","1396847.00","1393181.77",3665,"correct","only","1","Serduszka wygrał nie tylko prosiaczek.",8.20658361432075,"subj","congruent"
"78","v1p1","yes","4","21_filler-yes_Trgt-4_throw away.png","41","4","704478.00","702405.10",2072,"correct","filler","1","Prosiaczek wyrzucił cztery poduszki.",7.63626960337937,"obj","congruent"
"79","v1p1","yes","4","21_most-yes-sfot_trgt4_throw away.png","26","2","470766.00","467118.74",3647,"incorrect","most","1","Najwięcej królik wyrzucił skarpetek.",8.20166019080868,"obj","congruent"
"80","v1p1","yes","4","22_filler-yes_Trgt-4_throw away.png","62","4","987443.00","985305.38",2137,"correct","filler","1","Osioł wyrzucił cztery paski.",7.66715825531915,"obj","congruent"
"81","v1p1","yes","4","22_most-yes-stot_trgt4_throw away.png","29","2","515674.00","508499.67",7174,"incorrect","most","1","Najwięcej klocków wyrzucił miś.",8.87821865809223,"subj","congruent"
"82","v1p1","yes","4","23_filler-yes_Trgt-5_steal.png","91","4","1338649.00","1336768.36",1880,"correct","filler","1","Królik ukradł pięć kubków.",7.539027055824,"obj","congruent"
"83","v1p1","yes","4","23_most-yes-sfot_trgt4_steal.png","22","4","422443.00","420354.79",2088,"correct","only","1","Pies ukradł nie tylko banany.",7.64396194900253,"obj","congruent"
"84","v1p1","yes","4","24_filler-yes_Trgt-4_steal.png","12","4","310283.00","306528.06",3754,"correct","filler","1","Królik ukradł cztery fajki.",8.23057721714645,"obj","congruent"
"85","v1p1","yes","4","24_most-yes-stot_trgt4_steal.png","93","4","1357174.00","1353700.70",3473,"correct","only","1","Łyżki ukradł nie tylko osioł.",8.15277405274407,"subj","congruent"
"86","v1p1","yes","4","3_filler-yes_Trgt-3_break.png","65","2","1015353.00","1013853.73",1499,"incorrect","filler","1","Prosiaczek popsuł parę pompek.",7.3125534981026,"obj","congruent"
"87","v1p1","yes","4","3_most-yes-sfot_trgt3_break.png","64","4","1008402.00","1004987.56",3414,"correct","only","1","Królik popsuł nie tylko kalkulatory.",8.13563990335439,"obj","congruent"
"88","v1p1","yes","4","4_filler-yes_Trgt-4_break.png","75","4","1118300.00","1114047.93",4252,"correct","filler","1","Osioł popsuł kilka suszarek.",8.35514473946184,"obj","congruent"
"89","v1p1","yes","4","4_most-yes-stot_trgt4_break.png","55","4","917159.00","914342.81",2816,"correct","only","1","Kostki zepsuł nie tylko miś.",7.94307271727793,"subj","congruent"
"90","v1p1","yes","4","5_filler-yes_Trgt-6_buy.png","45","4","745786.00","742786.09",2999,"correct","filler","1","Królik kupił dużo butelek.",8.00603417874901,"obj","congruent"
"91","v1p1","yes","4","5_most-yes-sfot_trgt3_buy.png","72","2","1088130.00","1086516.19",1613,"incorrect","most","1","Najwięcej pies kupił papryk.",7.38585107812521,"obj","congruent"
"92","v1p1","yes","4","6_filler-yes_Trgt-4_buy.png","82","4","1245958.00","1243673.74",2284,"correct","filler","1","Królik kupił kilka hotdogów.",7.7336835707759,"obj","congruent"
"93","v1p1","yes","4","6_most-yes-stot_trgt4_buy.png","67","4","1041831.00","1037702.34",4128,"correct","most","1","Najwięcej ręczników kupił osioł.",8.3255483071614,"subj","congruent"
"94","v1p1","yes","4","7_filler-yes_Trgt-3_collect.png","89","4","1321144.00","1317636.14",3507,"correct","filler","1","Miś zebrał parę róż.",8.16251625014018,"obj","congruent"
"95","v1p1","yes","4","7_most-yes-sfot_trgt6_collect.png","28","4","498863.00","496383.72",2479,"correct","only","1","Pies zebrał nie tylko truskawki.",7.81561053203519,"obj","congruent"
"96","v1p1","yes","4","8_filler-yes_Trgt-6_collect.png","34","4","634357.00","630875.91",3481,"correct","filler","1","Miś zebrał dużo znaczków.",8.15507488781144,"obj","congruent"
"97","v1p1","yes","4","8_most-yes-stot_trgt6_collect.png","52","4","816879.00","813998.63",2880,"correct","only","1","Liście zebrał nie tylko lew.",7.96554557312999,"subj","congruent"
"98","v1p1","yes","4","9_filler-yes_Trgt-6_find.png","49","4","787910.00","783900.37",4009,"correct","filler","1","Osioł znalazł sześć zapalniczek.",8.29629711264251,"obj","congruent"
"99","v1p1","yes","4","9_most-yes-sfot_trgt6_find.png","56","2","927443.00","924625.56",2817,"incorrect","most","1","Najwięcej prosiaczek znalazł guzików.",7.94342776787637,"obj","congruent"
"100","v1p1","yes","4","practice_1.png","3","4","148123.00","144404.14",3718,"correct","practice","1","Lew zjadł dużo kiełbasek.",8.22094116828139,"obj","congruent"
"101","v1p1","yes","4","practice_2.png","4","4","158665.00","154903.52",3761,"correct","practice","1","Prosiaczek wypił mało herbaty.",8.23244015847034,"obj","congruent"
"102","v1p1","yes","4","practice_3.png","2","4","138714.00","134554.71",4159,"correct","practice","1","Miś przyniósł dwa kasztany.",8.33302993974291,"obj","congruent"
"103","v1p2","no","2","1_filler-no_Trgt-3_eat.png","65","2","1056547.00","1053959.57",2587,"correct","filler","1","Miś zjadł parę arbuzów.",7.85825418218603,"obj","incongruent"
"104","v1p2","no","2","1_most-no-sfof_trgt6_eat.png","101","2","1370133.00","1367008.12",3124,"correct","most","1","Najwięcej pies zjadł rogalików.",8.04686951095958,"obj","incongruent"
"105","v1p2","no","2","10_filler-no_Trgt-3_find.png","11","2","449230.00","446278.10",2951,"correct","filler","1","Miś znalazł cztery wieszaki.",7.98989937494294,"obj","incongruent"
"106","v1p2","no","2","10_most-no-sfof_trgt3_find.png","27","2","617746.00","615351.63",2394,"correct","most","1","Najwięcej zegarków znalazł pies.",7.78072088611792,"subj","incongruent"
"107","v1p2","no","2","11_filler-no_Trgt-5_catch.png","51","2","899431.00","896285.37",3145,"correct","filler","1","Pies złapał kilka żabek.",8.05356916913454,"obj","incongruent"
"108","v1p2","no","2","11_obj-nichtnur-no_trgt5_catch.png","76","2","1141722.00","1139154.65",2567,"correct","only","1","Królik złapał nie tylko motyle.",7.85049318087114,"obj","incongruent"
"109","v1p2","no","2","12_filler-no_Trgt-6_catch.png","72","2","1112167.00","1108306.43",3860,"correct","filler","1","Osioł złapał cztery pająki.",8.25842246245888,"obj","incongruent"
"110","v1p2","no","2","12_subj-nichtnur-no_trgt3_catch.png","52","2","907219.00","904818.21",2400,"correct","only","1","Piłki złapał nie tylko osioł.",7.78322401633604,"subj","incongruent"
"111","v1p2","no","2","13_filler-no_Trgt-5_bring.png","91","2","1291299.00","1288979.32",2319,"correct","filler","1","Pies przyniósł trzy linijki.",7.74889133725553,"obj","incongruent"
"112","v1p2","no","2","13_most-no-sfof_trgt5_bring.png","53","2","915786.00","912284.45",3501,"correct","most","1","Najwięcej lew przyniósł gwoździ.",8.16080392095467,"obj","incongruent"
"113","v1p2","no","2","14_filler-no_Trgt-3_bring.png","34","2","749767.00","747743.98",2023,"correct","filler","1","Lew przyniósł pięć siekierek.",7.61233683716775,"obj","incongruent"
"114","v1p2","no","2","14_most-no-sfof_trgt5_bring.png","80","2","1202415.00","1200567.76",1847,"correct","most","1","Najwięcej ołówków przyniósł prosiaczek.",7.52131798019924,"subj","incongruent"
"115","v1p2","no","2","15_filler-no_Trgt-6_paint.png","24","2","586093.00","582603.54",3489,"correct","filler","1","Prosiaczek namalował pięć krzyżyków.",8.15737044118677,"obj","incongruent"
"116","v1p2","no","2","15_obj-nichtnur-no_trgt6_paint.png","48","2","872972.00","870020.25",2951,"correct","only","1","Osioł namalował nie tylko słonka.",7.98989937494294,"obj","incongruent"
"117","v1p2","no","2","16_filler-no_Trgt-5_paint.png","75","2","1134172.00","1131538.43",2633,"correct","filler","1","Osioł namalował cztery drzewka.",7.87587915949631,"obj","incongruent"
"118","v1p2","no","2","16_subj-nichtnur-no_trgt5_paint.png","63","2","1042725.00","1040577.02",2147,"correct","only","1","Trójkąty namalował nie tylko osioł.",7.67182679787878,"subj","incongruent"
"119","v1p2","no","2","17_filler-no_Trgt-6_take.png","99","2","1353880.00","1351042.38",2837,"correct","filler","1","Królik zabrał cztery świeczki.",7.95050243480885,"obj","incongruent"
"120","v1p2","no","2","17_most-no-sfof_trgt3_take.png","84","2","1237271.00","1233582.51",3688,"correct","most","1","Najwięcej pies zabrał pudełek.",8.21283958467648,"obj","incongruent"
"121","v1p2","no","2","18_filler-no_Trgt-5_take.png","96","2","1331566.00","1328410.36",3155,"correct","filler","1","Królik zabrał sześć markerów.",8.05674377497531,"obj","incongruent"
"122","v1p2","no","2","18_most-no-sfof_trgt3_take.png","13","2","468548.00","465593.65",2954,"correct","most","1","Najwięcej książek zabrał osioł.",7.99091546309133,"subj","incongruent"
"123","v1p2","no","2","19_filler-no_Trgt-4_win.png","95","2","1321895.00","1319760.86",2134,"correct","filler","1","Miś wygrał trzy pisanki.",7.6657534318617,"obj","incongruent"
"124","v1p2","no","2","19_obj-nichtnur-no_trgt5_win.png","32","2","733675.00","731811.58",1863,"correct","only","1","Lew wygrał nie tylko lizaki.",7.52994337060159,"obj","incongruent"
"125","v1p2","no","2","2_filler-no_Trgt-5_eat.png","50","2","888930.00","886419.28",2510,"correct","filler","1","Miś zjadł kilka jabłek.",7.82803803212583,"obj","incongruent"
"126","v1p2","no","2","2_most-no-sfof_trgt5_eat.png","97","2","1338383.00","1336343.24",2039,"correct","most","1","Najwięcej ziemniaków zjadł lew.",7.62021477057445,"subj","incongruent"
"127","v1p2","no","2","20_filler-no_Trgt-3_win.png","79","2","1196026.00","1193551.49",2474,"correct","filler","1","Miś wygrał sześć medali.",7.81359155295243,"obj","incongruent"
"128","v1p2","no","2","20_subj-nichtnur-no_trgt6_win.png","93","2","1308088.00","1304878.39",3209,"correct","only","1","Gwiazdki wygrał nie tylko miś.",8.07371464110986,"subj","incongruent"
"129","v1p2","no","2","21_filler-no_Trgt-4_throw away.png","69","2","1089047.00","1085541.08",3505,"correct","filler","1","Osioł wyrzucił pięć smoczków.",8.16194579946869,"obj","incongruent"
"130","v1p2","no","2","21_most-no-sfof_trgt4_throw away.png","15","2","485738.00","481942.69",3795,"correct","most","1","Najwięcej prosiaczek wyrzucił czapek.",8.24143968982973,"obj","incongruent"
"131","v1p2","no","2","22_filler-no_Trgt-4_throw away.png","85","2","1245379.00","1242415.33",2963,"correct","filler","1","Pies wyrzucił sześć szminek.",7.99395754757357,"obj","incongruent"
"132","v1p2","no","2","22_most-no-sfof_trgt4_throw away.png","49","2","881536.00","878069.77",3466,"correct","most","1","Najwięcej misiów wyrzucił osioł.",8.15075647027555,"subj","incongruent"
"133","v1p2","no","2","23_filler-no_Trgt-5_steal.png","14","2","475856.00","473743.18",2112,"correct","filler","1","Lew ukradł trzy talerze.",7.65539064482615,"obj","incongruent"
"134","v1p2","no","2","23_obj-nichtnur-no_trgt4_steal.png","23","2","575782.00","571254.19",4527,"correct","only","1","Pies ukradł nie tylko cytryny.",8.41781474743596,"obj","incongruent"
"135","v1p2","no","2","24_filler-no_Trgt-4_steal.png","31","2","726527.00","724262.01",2264,"correct","filler","1","Prosiaczek ukradł sześć kapeluszy.",7.72488843932307,"obj","incongruent"
"136","v1p2","no","2","24_subj-nichtnur-no_trgt4_steal.png","29","2","637604.00","634467.21",3136,"correct","only","1","Noże ukradł nie tylko prosiaczek.",8.0507033814703,"subj","incongruent"
"137","v1p2","no","2","3_filler-no_Trgt-3_break.png","30","2","645786.00","642916.71",2869,"correct","filler","1","Osioł popsuł parę zegarów.",7.96171881598136,"obj","incongruent"
"138","v1p2","no","2","3_obj-nichtnur-no_trgt3_break.png","36","2","766638.00","763509.73",3128,"correct","only","1","Królik popsuł nie tylko telefony.",8.0481491016652,"obj","incongruent"
"139","v1p2","no","2","4_filler-no_Trgt-4_break.png","92","2","1299242.00","1296528.87",2713,"correct","filler","1","Pies popsuł kilka suszarek.",7.90581031265893,"obj","incongruent"
"140","v1p2","no","2","4_subj-nichtnur-no_trgt4_break.png","26","2","610658.00","606402.16",4255,"correct","only","1","Zszywacze popsuł nie tylko pies.",8.35585004100747,"subj","incongruent"
"141","v1p2","no","2","5_filler-no_Trgt-6_buy.png","88","2","1269519.00","1266113.98",3405,"correct","filler","1","Lew kupił kilka butelek.",8.13300021858361,"obj","incongruent"
"142","v1p2","no","2","5_most-no-sfof_trgt3_buy.png","89","2","1277083.00","1274396.81",2686,"correct","most","1","Najwięcej królik kupił pomidorów.",7.89580837708318,"obj","incongruent"
"143","v1p2","no","2","6_filler-no_Trgt-4_buy.png","45","2","848572.00","844821.70",3750,"correct","filler","1","Prosiaczek kupił kilka hotdogów.",8.22951111896446,"obj","incongruent"
"144","v1p2","no","2","6_most-no-sfof_trgt4_buy.png","33","2","742007.00","739194.48",2812,"correct","most","1","Najwięcej szczoteczek kupił królik.",7.94165125293056,"subj","incongruent"
"145","v1p2","no","2","7_filler-no_Trgt-3_collect.png","17","2","507420.00","503458.11",3961,"correct","filler","1","Lew zebrał parę róż.",8.28425179762192,"obj","incongruent"
"146","v1p2","no","2","7_obj-nichtnur-no_trgt6_collect.png","60","2","1019800.00","1018011.65",1788,"correct","only","1","Pies zebrał nie tylko grzyby.",7.48885295573346,"obj","incongruent"
"147","v1p2","no","2","8_filler-no_Trgt-6_collect.png","7","4","393949.00","390281.33",3667,"incorrect","filler","1","Prosiaczek zebrał kilka znaczków.",8.20712916807133,"obj","incongruent"
"148","v1p2","no","2","8_subj-nichtnur-no_trgt6_collect.png","68","2","1079348.00","1077258.24",2089,"correct","only","1","Kamienie zebrał nie tylko prosiaczek.",7.64444076155657,"subj","incongruent"
"149","v1p2","no","2","9_filler-no_Trgt-6_find.png","77","2","1148816.00","1146170.90",2645,"correct","filler","1","Królik znalazł trzy cygara.",7.8804263442924,"obj","incongruent"
"150","v1p2","no","2","9_most-no-sfof_trgt6_find.png","58","2","1005477.00","1001545.95",3931,"correct","most","1","Najwięcej osioł znalazł kluczy.",8.27664912542186,"obj","incongruent"
"151","v1p2","no","2","practice_4.png","6","2","323956.00","319352.10",4603,"correct","practice","1","Pies znalazł siedem kul.",8.43446354381724,"obj","incongruent"
"152","v1p2","no","2","practice_5.png","5","4","312344.00","307436.13",4907,"incorrect","practice","1","Osioł namalował wiele ludzików.",8.4984180360899,"obj","incongruent"
"153","v1p2","no","2","practice_6.png","3","2","292919.00","290353.79",2565,"correct","practice","1","Lew nie wygrał żadnych chorągiewek.",7.84971375760487,"obj","incongruent"
"154","v1p2","yes","4","1_filler-yes_Trgt-3_eat.png","18","4","518067.00","513290.89",4776,"correct","filler","1","Pies zjadł parę główek kapusty.",8.47135865507244,"obj","congruent"
"155","v1p2","yes","4","1_most-yes-sfot_trgt6_eat.png","22","2","563197.00","558771.58",4425,"incorrect","most","1","Najwięcej lew zjadł ciastek.",8.39502555744203,"obj","congruent"
"156","v1p2","yes","4","10_filler-yes_Trgt-3_find.png","59","4","1013178.00","1010445.42",2732,"correct","filler","1","Pies znalazł trzy żarówki.",7.91278922069068,"obj","congruent"
"157","v1p2","yes","4","10_most-yes-stot_trgt3_find.png","61","4","1027765.00","1024594.61",3170,"correct","most","1","Najwięcej okularów znalazł osioł.",8.06148686687133,"subj","congruent"
"158","v1p2","yes","4","11_filler-yes_Trgt-5_catch.png","35","4","758156.00","754926.90",3229,"correct","filler","1","Lew złapał dużo żabek.",8.07992777075827,"obj","congruent"
"159","v1p2","yes","4","11_most-yes-sfot_trgt5_catch.png","67","4","1072234.00","1069292.03",2941,"correct","only","1","Królik złapał nie tylko biedronki.",7.986504938554,"obj","congruent"
"160","v1p2","yes","4","12_filler-yes_Trgt-6_catch.png","12","4","459473.00","455994.19",3478,"correct","filler","1","Prosiaczek złapał sześć mrówek.",8.15421269491423,"obj","congruent"
"161","v1p2","yes","4","12_most-yes-stot_trgt3_catch.png","44","4","837923.00","835155.59",2767,"correct","only","1","Balony złapał nie tylko królik.",7.92551897978693,"subj","congruent"
"162","v1p2","yes","4","13_filler-yes_Trgt-5_bring.png","57","4","995880.00","992646.47",3233,"correct","filler","1","Lew przyniósł pięć długopisów.",8.08116577772543,"obj","congruent"
"163","v1p2","yes","4","13_most-yes-sfot_trgt5_bring.png","55","2","979847.00","976047.43",3799,"incorrect","most","1","Najwięcej miś przyniósł spinaczy.",8.24249315318763,"obj","congruent"
"164","v1p2","yes","4","14_filler-yes_Trgt-3_bring.png","86","4","1251865.00","1249848.25",2016,"correct","filler","1","Prosiaczek przyniósł trzy młotki.",7.60887062919126,"obj","congruent"
"165","v1p2","yes","4","14_most-yes-stot_trgt5_bring.png","83","4","1228935.00","1225049.66",3885,"correct","most","1","Najwięcej kredek przyniósł miś.",8.26487826280175,"subj","congruent"
"166","v1p2","yes","4","15_filler-yes_Trgt-6_paint.png","102","4","1378839.00","1375191.00",3648,"correct","filler","1","Królik namalował sześć kresek.",8.20193435119422,"obj","congruent"
"167","v1p2","yes","4","15_most-yes-sfot_trgt6_paint.png","64","4","1048991.00","1047159.98",1831,"correct","only","1","Osioł namalował nie tylko chmurki.",7.51261754467451,"obj","congruent"
"168","v1p2","yes","4","16_filler-yes_Trgt-5_paint.png","28","4","628552.00","623034.53",5517,"correct","filler","1","Miś namalował pięć kwiatków.",8.61558951327243,"obj","congruent"
"169","v1p2","yes","4","16_most-yes-stot_trgt5_paint.png","9","4","426956.00","422629.46",4326,"correct","only","1","Kółka namalował nie tylko pies.",8.372398606513,"subj","congruent"
"170","v1p2","yes","4","17_filler-yes_Trgt-6_take.png","54","4","924282.00","921150.61",3131,"correct","filler","1","Pies zabrał sześć zapałek.",8.04910772132641,"obj","congruent"
"171","v1p2","yes","4","17_most-yes-sfot_trgt3_take.png","90","4","1284375.00","1281896.38",2478,"correct","most","1","Najwięcej lew zabrał torebek.",7.81520706218909,"obj","congruent"
"172","v1p2","yes","4","18_filler-yes_Trgt-5_take.png","39","4","795222.00","791141.47",4080,"correct","filler","1","Osioł zabrał pięć piór.",8.31385226739821,"obj","congruent"
"173","v1p2","yes","4","18_most-yes-stot_trgt3_take.png","46","4","857460.00","853021.22",4438,"correct","most","1","Najwięcej zeszytów zabrał prosiaczek.",8.39795910349254,"subj","congruent"
"174","v1p2","yes","4","19_filler-yes_Trgt-4_win.png","10","4","437684.00","434478.78",3205,"correct","filler","1","Pies wygrał cztery kurczaczki.",8.07246736935477,"obj","congruent"
"175","v1p2","yes","4","19_most-yes-sfot_trgt5_win.png","73","4","1119034.00","1116872.60",2161,"correct","only","1","Lew wygrał nie tylko cukierki.",7.67832635650689,"obj","congruent"
"176","v1p2","yes","4","2_filler-yes_Trgt-5_eat.png","42","4","821786.00","818756.53",3029,"correct","filler","1","Lew zjadł dużo jabłek.",8.01598781102724,"obj","congruent"
"177","v1p2","yes","4","2_most-yes-stot_trgt5_eat.png","71","4","1103569.00","1101706.83",1862,"correct","most","1","Najwięcej ogórków zjadł prosiaczek.",7.52940645783701,"subj","congruent"
"178","v1p2","yes","4","20_filler-yes_Trgt-3_win.png","66","4","1064363.00","1060359.21",4003,"correct","filler","1","Lew wygrał trzy puchary.",8.29479935899257,"obj","congruent"
"179","v1p2","yes","4","20_most-yes-stot_trgt6_win.png","98","4","1344589.00","1343342.82",1246,"correct","only","1","Serduszka wygrał nie tylko prosiaczek.",7.1276936993474,"subj","congruent"
"180","v1p2","yes","4","21_filler-yes_Trgt-4_throw away.png","81","4","1212110.00","1208133.99",3976,"correct","filler","1","Prosiaczek wyrzucił cztery poduszki.",8.28803156777646,"obj","congruent"
"181","v1p2","yes","4","21_most-yes-sfot_trgt4_throw away.png","37","4","776896.00","771725.92",5170,"correct","most","1","Najwięcej królik wyrzucił skarpetek.",8.55062796750248,"obj","congruent"
"182","v1p2","yes","4","22_filler-yes_Trgt-4_throw away.png","21","4","549857.00","546972.26",2884,"correct","filler","1","Osioł wyrzucił cztery paski.",7.96693349840484,"obj","congruent"
"183","v1p2","yes","4","22_most-yes-stot_trgt4_throw away.png","40","4","804029.00","800524.25",3504,"correct","most","1","Najwięcej klocków wyrzucił miś.",8.16166045205628,"subj","congruent"
"184","v1p2","yes","4","23_filler-yes_Trgt-5_steal.png","25","4","598149.00","594469.53",3679,"correct","filler","1","Królik ukradł pięć kubków.",8.21039625510477,"obj","congruent"
"185","v1p2","yes","4","23_most-yes-sfot_trgt4_steal.png","74","4","1125865.00","1123388.88",2476,"correct","only","1","Pies ukradł nie tylko banany.",7.81439963380449,"obj","congruent"
"186","v1p2","yes","4","24_filler-yes_Trgt-4_steal.png","38","4","784949.00","781375.36",3573,"correct","filler","1","Królik ukradł cztery fajki.",8.18116085802341,"obj","congruent"
"187","v1p2","yes","4","24_most-yes-stot_trgt4_steal.png","94","4","1314264.00","1312844.60",1419,"correct","only","1","Łyżki ukradł nie tylko osioł.",7.25770767716004,"subj","congruent"
"188","v1p2","yes","4","3_filler-yes_Trgt-3_break.png","70","4","1096768.00","1093690.62",3077,"correct","filler","1","Prosiaczek popsuł parę pompek.",8.03171037532204,"obj","congruent"
"189","v1p2","yes","4","3_most-yes-sfot_trgt3_break.png","19","4","528214.00","522923.66",5290,"correct","only","1","Królik popsuł nie tylko kalkulatory.",8.57357352485234,"obj","congruent"
"190","v1p2","yes","4","4_filler-yes_Trgt-4_break.png","100","4","1362474.00","1359441.90",3032,"correct","filler","1","Osioł popsuł kilka suszarek.",8.01697774676226,"obj","congruent"
"191","v1p2","yes","4","4_most-yes-stot_trgt4_break.png","16","4","497525.00","491875.45",5649,"correct","only","1","Kostki zepsuł nie tylko miś.",8.63923381732526,"subj","congruent"
"192","v1p2","yes","4","5_filler-yes_Trgt-6_buy.png","47","4","865621.00","862254.03",3366,"correct","filler","1","Królik kupił dużo butelek.",8.12148037475075,"obj","congruent"
"193","v1p2","yes","4","5_most-yes-sfot_trgt3_buy.png","8","2","411748.00","407230.37",4517,"incorrect","most","1","Najwięcej pies kupił papryk.",8.4156033356546,"obj","congruent"
"194","v1p2","yes","4","6_filler-yes_Trgt-4_buy.png","62","4","1036238.00","1032210.85",4027,"correct","filler","1","Królik kupił kilka hotdogów.",8.30077696085145,"obj","congruent"
"195","v1p2","yes","4","6_most-yes-stot_trgt4_buy.png","20","4","537558.00","533623.04",3934,"correct","most","1","Najwięcej ręczników kupił osioł.",8.277411998949,"subj","congruent"
"196","v1p2","yes","4","7_filler-yes_Trgt-3_collect.png","56","4","987792.00","984980.25",2811,"correct","filler","1","Miś zebrał parę róż.",7.94129557090653,"obj","congruent"
"197","v1p2","yes","4","7_most-yes-sfot_trgt6_collect.png","41","4","811698.00","809357.08",2340,"correct","only","1","Pies zebrał nie tylko truskawki.",7.75790620835175,"obj","congruent"
"198","v1p2","yes","4","8_filler-yes_Trgt-6_collect.png","82","4","1220375.00","1216216.87",4158,"correct","filler","1","Miś zebrał dużo znaczków.",8.33278946841796,"obj","congruent"
"199","v1p2","yes","4","8_most-yes-stot_trgt6_collect.png","78","4","1155183.00","1153087.18",2095,"correct","only","1","Liście zebrał nie tylko lew.",7.64730883235624,"subj","congruent"
"200","v1p2","yes","4","9_filler-yes_Trgt-6_find.png","43","4","830686.00","827022.72",3663,"correct","filler","1","Osioł znalazł sześć zapalniczek.",8.20603776277881,"obj","congruent"
"201","v1p2","yes","4","9_most-yes-sfot_trgt6_find.png","87","4","1261674.00","1256564.53",5109,"correct","most","1","Najwięcej prosiaczek znalazł guzików.",8.5387589693308,"obj","congruent"
"202","v1p2","yes","4","practice_1.png","4","4","301086.00","298503.31",2582,"correct","practice","1","Lew zjadł dużo kiełbasek.",7.85631957140659,"obj","congruent"
"203","v1p2","yes","4","practice_2.png","2","4","281816.00","278787.78",3028,"correct","practice","1","Prosiaczek wypił mało herbaty.",8.01565761455734,"obj","congruent"
"205","v1p3","no","2","1_filler-no_Trgt-3_eat.png","88","2","1339087.00","1337365.39",1721,"correct","filler","1","Miś zjadł parę arbuzów.",7.45066079621154,"obj","incongruent"
"206","v1p3","no","2","1_most-no-sfof_trgt6_eat.png","44","2","882447.00","880208.56",2238,"correct","most","1","Najwięcej pies zjadł rogalików.",7.71333788887187,"obj","incongruent"
"207","v1p3","no","2","10_filler-no_Trgt-3_find.png","15","2","607073.00","603841.25",3231,"correct","filler","1","Miś znalazł cztery wieszaki.",8.0805469658245,"obj","incongruent"
"208","v1p3","no","2","10_most-no-sfof_trgt3_find.png","96","2","1390122.00","1387695.80",2426,"correct","most","1","Najwięcej zegarków znalazł pies.",7.793999089504,"subj","incongruent"
"209","v1p3","no","2","11_filler-no_Trgt-5_catch.png","42","4","868550.00","865926.06",2623,"incorrect","filler","1","Pies złapał kilka żabek.",7.87207397986687,"obj","incongruent"
"210","v1p3","no","2","11_obj-nichtnur-no_trgt5_catch.png","87","2","1333201.00","1331082.41",2118,"correct","only","1","Królik złapał nie tylko motyle.",7.65822752616135,"obj","incongruent"
"211","v1p3","no","2","12_filler-no_Trgt-6_catch.png","73","2","1186098.00","1183557.65",2540,"correct","filler","1","Osioł złapał cztery pająki.",7.83991936001258,"obj","incongruent"
"212","v1p3","no","2","12_subj-nichtnur-no_trgt3_catch.png","13","2","587961.00","582492.49",5468,"correct","only","1","Piłki złapał nie tylko osioł.",8.60666819784384,"subj","incongruent"
"213","v1p3","no","2","13_filler-no_Trgt-5_bring.png","45","2","888018.00","886424.87",1593,"correct","filler","1","Pies przyniósł trzy linijki.",7.37337430991005,"obj","incongruent"
"214","v1p3","no","2","13_most-no-sfof_trgt5_bring.png","77","2","1213704.00","1210572.74",3131,"correct","most","1","Najwięcej lew przyniósł gwoździ.",8.04910772132641,"obj","incongruent"
"215","v1p3","no","2","14_filler-no_Trgt-3_bring.png","30","2","729855.00","727784.06",2070,"correct","filler","1","Lew przyniósł pięć siekierek.",7.63530388625941,"obj","incongruent"
"216","v1p3","no","2","14_most-no-sfof_trgt5_bring.png","99","2","1410724.00","1408511.27",2212,"correct","most","1","Najwięcej ołówków przyniósł prosiaczek.",7.70165236264223,"subj","incongruent"
"217","v1p3","no","2","15_filler-no_Trgt-6_paint.png","25","2","689926.00","685753.16",4172,"correct","filler","1","Prosiaczek namalował pięć krzyżyków.",8.33615081612066,"obj","incongruent"
"218","v1p3","no","2","15_obj-nichtnur-no_trgt6_paint.png","95","2","1383871.00","1382712.74",1158,"correct","only","1","Osioł namalował nie tylko słonka.",7.05444965813294,"obj","incongruent"
"219","v1p3","no","2","16_filler-no_Trgt-5_paint.png","52","2","938366.00","936805.27",1560,"correct","filler","1","Osioł namalował cztery drzewka.",7.35244110024358,"obj","incongruent"
"220","v1p3","no","2","16_subj-nichtnur-no_trgt5_paint.png","54","2","952460.00","949437.88",3022,"correct","only","1","Trójkąty namalował nie tylko osioł.",8.01367414283268,"subj","incongruent"
"221","v1p3","no","2","17_filler-no_Trgt-6_take.png","69","2","1156845.00","1154342.67",2502,"correct","filler","1","Królik zabrał cztery świeczki.",7.82484569102686,"obj","incongruent"
"222","v1p3","no","2","17_most-no-sfof_trgt3_take.png","61","2","1099953.00","1098012.59",1940,"correct","most","1","Najwięcej pies zabrał pudełek.",7.57044325205737,"obj","incongruent"
"223","v1p3","no","2","18_filler-no_Trgt-5_take.png","38","2","839829.00","837061.06",2767,"correct","filler","1","Królik zabrał sześć markerów.",7.92551897978693,"obj","incongruent"
"224","v1p3","no","2","18_most-no-sfof_trgt3_take.png","101","2","1423903.00","1421127.19",2775,"correct","most","1","Najwięcej książek zabrał osioł.",7.92840602618053,"subj","incongruent"
"225","v1p3","no","2","19_filler-no_Trgt-4_win.png","28","2","714507.00","710018.42",4488,"correct","filler","1","Miś wygrał trzy pisanki.",8.40916244720253,"obj","incongruent"
"226","v1p3","no","2","19_obj-nichtnur-no_trgt5_win.png","27","2","705124.00","702885.50",2238,"correct","only","1","Lew wygrał nie tylko lizaki.",7.71333788887187,"obj","incongruent"
"227","v1p3","no","2","2_filler-no_Trgt-5_eat.png","84","2","1311999.00","1309400.33",2598,"correct","filler","1","Miś zjadł kilka jabłek.",7.86249719723055,"obj","incongruent"
"228","v1p3","no","2","2_most-no-sfof_trgt5_eat.png","21","2","654703.00","652788.40",1914,"correct","most","1","Najwięcej ziemniaków zjadł lew.",7.5569505720129,"subj","incongruent"
"229","v1p3","no","2","20_filler-no_Trgt-3_win.png","66","2","1136799.00","1135327.09",1471,"correct","filler","1","Miś wygrał sześć medali.",7.29369772060144,"obj","incongruent"
"230","v1p3","no","2","20_subj-nichtnur-no_trgt6_win.png","59","2","1085807.00","1083146.78",2660,"correct","only","1","Gwiazdki wygrał nie tylko miś.",7.88608140177575,"subj","incongruent"
"231","v1p3","no","2","21_filler-no_Trgt-4_throw away.png","83","2","1305028.00","1302184.09",2843,"correct","filler","1","Osioł wyrzucił pięć smoczków.",7.952615111651,"obj","incongruent"
"232","v1p3","no","2","21_most-no-sfof_trgt4_throw away.png","92","2","1365982.00","1363830.52",2151,"correct","most","1","Najwięcej prosiaczek wyrzucił czapek.",7.67368812926773,"obj","incongruent"
"233","v1p3","no","2","22_filler-no_Trgt-4_throw away.png","36","2","823561.00","820378.68",3182,"correct","filler","1","Pies wyrzucił sześć szminek.",8.06526520889773,"obj","incongruent"
"234","v1p3","no","2","22_most-no-sfof_trgt4_throw away.png","74","2","1191841.00","1190240.58",1600,"correct","most","1","Najwięcej misiów wyrzucił osioł.",7.37775890822787,"subj","incongruent"
"235","v1p3","no","2","23_filler-no_Trgt-5_steal.png","33","2","797538.00","795630.14",1907,"correct","filler","1","Lew ukradł trzy talerze.",7.55328660560042,"obj","incongruent"
"236","v1p3","no","2","23_obj-nichtnur-no_trgt4_steal.png","89","2","1345673.00","1343665.02",2007,"correct","only","1","Pies ukradł nie tylko cytryny.",7.60439634879634,"obj","incongruent"
"237","v1p3","no","2","24_filler-no_Trgt-4_steal.png","18","2","633182.00","631073.00",2109,"correct","filler","1","Prosiaczek ukradł sześć kapeluszy.",7.65396918047877,"obj","incongruent"
"238","v1p3","no","2","24_subj-nichtnur-no_trgt4_steal.png","16","2","616332.00","612657.41",3674,"correct","only","1","Noże ukradł nie tylko prosiaczek.",8.20903626577507,"subj","incongruent"
"239","v1p3","no","2","3_filler-no_Trgt-3_break.png","22","4","662417.00","660271.32",2145,"incorrect","filler","1","Osioł popsuł parę zegarów.",7.67089483136212,"obj","incongruent"
"240","v1p3","no","2","3_obj-nichtnur-no_trgt3_break.png","47","2","905017.00","903423.88",1593,"correct","only","1","Królik popsuł nie tylko telefony.",7.37337430991005,"obj","incongruent"
"241","v1p3","no","2","4_filler-no_Trgt-4_break.png","80","2","1284243.00","1280568.67",3674,"correct","filler","1","Pies popsuł kilka suszarek.",8.20903626577507,"obj","incongruent"
"242","v1p3","no","2","4_subj-nichtnur-no_trgt4_break.png","64","4","1120176.00","1117394.80",2781,"incorrect","only","1","Zszywacze popsuł nie tylko pies.",7.93056585423396,"subj","incongruent"
"243","v1p3","no","2","5_filler-no_Trgt-6_buy.png","14","2","598065.00","594225.14",3839,"correct","filler","1","Lew kupił kilka butelek.",8.2529671950008,"obj","incongruent"
"244","v1p3","no","2","5_most-no-sfof_trgt3_buy.png","85","2","1319642.00","1316066.62",3575,"correct","most","1","Najwięcej królik kupił pomidorów.",8.18172045512811,"obj","incongruent"
"245","v1p3","no","2","6_filler-no_Trgt-4_buy.png","46","4","895912.00","892557.84",3354,"incorrect","filler","1","Prosiaczek kupił kilka hotdogów.",8.11790894238315,"obj","incongruent"
"246","v1p3","no","2","6_most-no-sfof_trgt4_buy.png","81","2","1292012.00","1289384.83",2627,"correct","most","1","Najwięcej szczoteczek kupił królik.",7.87359778968554,"subj","incongruent"
"247","v1p3","no","2","7_filler-no_Trgt-3_collect.png","93","4","1372332.00","1369930.16",2401,"incorrect","filler","1","Lew zebrał parę róż.",7.78364059622125,"obj","incongruent"
"248","v1p3","no","2","7_obj-nichtnur-no_trgt6_collect.png","58","2","1078708.00","1076463.84",2244,"correct","only","1","Pies zebrał nie tylko grzyby.",7.71601526664259,"obj","incongruent"
"249","v1p3","no","2","8_filler-no_Trgt-6_collect.png","55","4","1051188.00","1048315.48",2872,"incorrect","filler","1","Prosiaczek zebrał kilka znaczków.",7.96276393016811,"obj","incongruent"
"250","v1p3","no","2","8_subj-nichtnur-no_trgt6_collect.png","40","2","853474.00","849926.97",3547,"correct","only","1","Kamienie zebrał nie tylko prosiaczek.",8.17385745477362,"subj","incongruent"
"251","v1p3","no","2","9_filler-no_Trgt-6_find.png","76","2","1205893.00","1203823.13",2069,"correct","filler","1","Królik znalazł trzy cygara.",7.63482067774554,"obj","incongruent"
"252","v1p3","no","2","9_most-no-sfof_trgt6_find.png","63","2","1113491.00","1111228.49",2262,"correct","most","1","Najwięcej osioł znalazł kluczy.",7.72400465667607,"obj","incongruent"
"253","v1p3","no","2","practice_4.png","4","2","456875.00","448150.28",8724,"correct","practice","1","Pies znalazł siedem kul.",9.07383312732152,"obj","incongruent"
"254","v1p3","no","2","practice_5.png","6","2","473963.00","470732.29",3230,"correct","practice","1","Osioł namalował wiele ludzików.",8.0802374162167,"obj","incongruent"
"255","v1p3","no","2","practice_6.png","5","2","464705.00","462399.45",2305,"correct","practice","1","Lew nie wygrał żadnych chorągiewek.",7.74283595543075,"obj","incongruent"
"256","v1p3","yes","4","1_filler-yes_Trgt-3_eat.png","79","4","1276244.00","1272185.84",4058,"correct","filler","1","Pies zjadł parę główek kapusty.",8.30844552038576,"obj","congruent"
"257","v1p3","yes","4","1_most-yes-sfot_trgt6_eat.png","34","2","807448.00","803029.71",4418,"incorrect","most","1","Najwięcej lew zjadł ciastek.",8.39344238398006,"obj","congruent"
"258","v1p3","yes","4","10_filler-yes_Trgt-3_find.png","100","4","1417236.00","1414610.90",2625,"correct","filler","1","Pies znalazł trzy żarówki.",7.87283617502572,"obj","congruent"
"259","v1p3","yes","4","10_most-yes-stot_trgt3_find.png","31","4","783096.00","780747.66",2348,"correct","most","1","Najwięcej okularów znalazł osioł.",7.76131918094799,"subj","congruent"
"260","v1p3","yes","4","11_filler-yes_Trgt-5_catch.png","91","4","1359830.00","1356897.59",2932,"correct","filler","1","Lew złapał dużo żabek.",7.98344006300654,"obj","congruent"
"261","v1p3","yes","4","11_most-yes-sfot_trgt5_catch.png","7","4","525190.00","522862.62",2327,"correct","only","1","Królik złapał nie tylko biedronki.",7.75233516330229,"obj","congruent"
"262","v1p3","yes","4","12_filler-yes_Trgt-6_catch.png","102","4","1429930.00","1427510.15",2419,"correct","filler","1","Prosiaczek złapał sześć mrówek.",7.79110951061003,"obj","congruent"
"263","v1p3","yes","4","12_most-yes-stot_trgt3_catch.png","24","4","678505.00","676553.70",1951,"correct","only","1","Balony złapał nie tylko królik.",7.57609734062311,"subj","congruent"
"264","v1p3","yes","4","13_filler-yes_Trgt-5_bring.png","60","4","1093839.00","1090679.69",3159,"correct","filler","1","Lew przyniósł pięć długopisów.",8.05801080080209,"obj","congruent"
"265","v1p3","yes","4","13_most-yes-sfot_trgt5_bring.png","82","2","1297844.00","1296017.77",1826,"incorrect","most","1","Najwięcej miś przyniósł spinaczy.",7.50988306115491,"obj","congruent"
"266","v1p3","yes","4","14_filler-yes_Trgt-3_bring.png","94","4","1378528.00","1376446.45",2081,"correct","filler","1","Prosiaczek przyniósł trzy młotki.",7.64060382639363,"obj","congruent"
"267","v1p3","yes","4","14_most-yes-stot_trgt5_bring.png","56","4","1059518.00","1056465.00",3052,"correct","most","1","Najwięcej kredek przyniósł miś.",8.02355239240435,"subj","congruent"
"268","v1p3","yes","4","15_filler-yes_Trgt-6_paint.png","19","4","641591.00","638255.92",3335,"correct","filler","1","Królik namalował sześć kresek.",8.11222795834972,"obj","congruent"
"269","v1p3","yes","4","15_most-yes-sfot_trgt6_paint.png","43","4","876147.00","874058.91",2088,"correct","only","1","Osioł namalował nie tylko chmurki.",7.64396194900253,"obj","congruent"
"270","v1p3","yes","4","16_filler-yes_Trgt-5_paint.png","41","4","861649.00","857809.86",3839,"correct","filler","1","Miś namalował pięć kwiatków.",8.2529671950008,"obj","congruent"
"271","v1p3","yes","4","16_most-yes-stot_trgt5_paint.png","11","4","569678.00","568093.32",1584,"correct","only","1","Kółka namalował nie tylko pies.",7.36770857237437,"subj","congruent"
"272","v1p3","yes","4","17_filler-yes_Trgt-6_take.png","23","2","670816.00","667404.23",3411,"incorrect","filler","1","Pies zabrał sześć zapałek.",8.13476078241865,"obj","congruent"
"273","v1p3","yes","4","17_most-yes-sfot_trgt3_take.png","37","2","831207.00","827861.60",3345,"incorrect","most","1","Najwięcej lew zabrał torebek.",8.11522197256233,"obj","congruent"
"274","v1p3","yes","4","18_filler-yes_Trgt-5_take.png","32","2","790884.00","788363.89",2520,"incorrect","filler","1","Osioł zabrał pięć piór.",7.83201418050547,"obj","congruent"
"275","v1p3","yes","4","18_most-yes-stot_trgt3_take.png","78","4","1222548.00","1218172.29",4375,"correct","most","1","Najwięcej zeszytów zabrał prosiaczek.",8.38366179879172,"subj","congruent"
"276","v1p3","yes","4","19_filler-yes_Trgt-4_win.png","97","4","1397472.00","1394345.41",3126,"correct","filler","1","Pies wygrał cztery kurczaczki.",8.04750951098142,"obj","congruent"
"277","v1p3","yes","4","19_most-yes-sfot_trgt5_win.png","26","4","696626.00","694352.67",2273,"correct","only","1","Lew wygrał nie tylko cukierki.",7.72885582385254,"obj","congruent"
"278","v1p3","yes","4","2_filler-yes_Trgt-5_eat.png","98","4","1404183.00","1401728.33",2454,"correct","filler","1","Lew zjadł dużo jabłek.",7.80547462527086,"obj","congruent"
"279","v1p3","yes","4","2_most-yes-stot_trgt5_eat.png","71","4","1169196.00","1166791.93",2404,"correct","most","1","Najwięcej ogórków zjadł prosiaczek.",7.7848892956551,"subj","congruent"
"280","v1p3","yes","4","20_filler-yes_Trgt-3_win.png","70","4","1162810.00","1160975.62",1834,"correct","filler","1","Lew wygrał trzy puchary.",7.51425465281641,"obj","congruent"
"281","v1p3","yes","4","20_most-yes-stot_trgt6_win.png","39","4","845436.00","844293.97",1142,"correct","only","1","Serduszka wygrał nie tylko prosiaczek.",7.04053639021596,"subj","congruent"
"282","v1p3","yes","4","21_filler-yes_Trgt-4_throw away.png","49","4","916901.00","914256.58",2644,"correct","filler","1","Prosiaczek wyrzucił cztery poduszki.",7.88004820097158,"obj","congruent"
"283","v1p3","yes","4","21_most-yes-sfot_trgt4_throw away.png","10","2","561298.00","555944.03",5353,"incorrect","most","1","Najwięcej królik wyrzucił skarpetek.",8.58541243039338,"obj","congruent"
"284","v1p3","yes","4","22_filler-yes_Trgt-4_throw away.png","62","4","1106985.00","1104545.54",2439,"correct","filler","1","Osioł wyrzucił cztery paski.",7.79934339821592,"obj","congruent"
"285","v1p3","yes","4","22_most-yes-stot_trgt4_throw away.png","35","4","815730.00","812595.81",3134,"correct","most","1","Najwięcej klocków wyrzucił miś.",8.05006542291597,"subj","congruent"
"286","v1p3","yes","4","23_filler-yes_Trgt-5_steal.png","12","4","578126.00","574359.62",3766,"correct","filler","1","Królik ukradł pięć kubków.",8.2337687092171,"obj","congruent"
"287","v1p3","yes","4","23_most-yes-sfot_trgt4_steal.png","90","4","1352918.00","1351031.26",1886,"correct","only","1","Pies ukradł nie tylko banany.",7.5422134631934,"obj","congruent"
"288","v1p3","yes","4","24_filler-yes_Trgt-4_steal.png","86","4","1326604.00","1324332.81",2271,"correct","filler","1","Królik ukradł cztery fajki.",7.72797554210556,"obj","congruent"
"289","v1p3","yes","4","24_most-yes-stot_trgt4_steal.png","29","4","722759.00","719917.86",2841,"correct","only","1","Łyżki ukradł nie tylko osioł.",7.95191138185419,"subj","congruent"
"290","v1p3","yes","4","3_filler-yes_Trgt-3_break.png","9","4","548595.00","543578.08",5016,"correct","filler","1","Prosiaczek popsuł parę pompek.",8.52038808231276,"obj","congruent"
"291","v1p3","yes","4","3_most-yes-sfot_trgt3_break.png","48","4","910138.00","909006.89",1131,"correct","only","1","Królik popsuł nie tylko kalkulatory.",7.03085747611612,"obj","congruent"
"292","v1p3","yes","4","4_filler-yes_Trgt-4_break.png","57","4","1070969.00","1068514.31",2454,"correct","filler","1","Osioł popsuł kilka suszarek.",7.80547462527086,"obj","congruent"
"293","v1p3","yes","4","4_most-yes-stot_trgt4_break.png","51","4","932043.00","929139.06",2903,"correct","only","1","Kostki zepsuł nie tylko miś.",7.97349996402463,"subj","congruent"
"294","v1p3","yes","4","5_filler-yes_Trgt-6_buy.png","72","2","1179281.00","1173841.52",5439,"incorrect","filler","1","Królik kupił dużo butelek.",8.60135049942296,"obj","congruent"
"295","v1p3","yes","4","5_most-yes-sfot_trgt3_buy.png","17","2","624996.00","620940.25",4055,"incorrect","most","1","Najwięcej pies kupił papryk.",8.30770596654951,"obj","congruent"
"296","v1p3","yes","4","6_filler-yes_Trgt-4_buy.png","50","4","923476.00","920856.20",2619,"correct","filler","1","Królik kupił kilka hotdogów.",7.87054784450771,"obj","congruent"
"297","v1p3","yes","4","6_most-yes-stot_trgt4_buy.png","75","4","1199091.00","1195890.26",3200,"correct","most","1","Najwięcej ręczników kupił osioł.",8.07090608878782,"subj","congruent"
"298","v1p3","yes","4","7_filler-yes_Trgt-3_collect.png","65","2","1128583.00","1125177.69",3405,"incorrect","filler","1","Miś zebrał parę róż.",8.13300021858361,"obj","congruent"
"299","v1p3","yes","4","7_most-yes-sfot_trgt6_collect.png","68","4","1150156.00","1147693.05",2462,"correct","only","1","Pies zebrał nie tylko truskawki.",7.8087293067444,"obj","congruent"
"300","v1p3","yes","4","8_filler-yes_Trgt-6_collect.png","53","4","945584.00","942354.95",3229,"correct","filler","1","Miś zebrał dużo znaczków.",8.07992777075827,"obj","congruent"
"301","v1p3","yes","4","8_most-yes-stot_trgt6_collect.png","20","4","648384.00","646388.77",1995,"correct","only","1","Liście zebrał nie tylko lew.",7.59839932932396,"subj","congruent"
"302","v1p3","yes","4","9_filler-yes_Trgt-6_find.png","8","2","535035.00","530778.83",4256,"incorrect","filler","1","Osioł znalazł sześć zapalniczek.",8.35608503102148,"obj","congruent"
"303","v1p3","yes","4","9_most-yes-sfot_trgt6_find.png","67","2","1143056.00","1140876.79",2179,"incorrect","most","1","Najwięcej prosiaczek znalazł guzików.",7.68662133494462,"obj","congruent"
"304","v1p3","yes","4","practice_1.png","2","4","431410.00","425634.91",5775,"correct","practice","1","Lew zjadł dużo kiełbasek.",8.66129353538999,"obj","congruent"
"305","v1p3","yes","4","practice_2.png","3","4","442613.00","437417.57",5195,"correct","practice","1","Prosiaczek wypił mało herbaty.",8.55545190353333,"obj","congruent"
"306","v1p3","yes","4","practice_3.png","1","4","418513.00","414268.91",4244,"correct","practice","1","Miś przyniósł dwa kasztany.",8.35326149973387,"obj","congruent"
"307","v1p4","no","2","1_filler-no_Trgt-3_eat.png","40","2","921651.00","918977.26",2673,"correct","filler","1","Miś zjadł parę arbuzów.",7.89095671613892,"obj","incongruent"
"308","v1p4","no","2","1_most-no-sfof_trgt6_eat.png","60","2","1118839.00","1116599.12",2239,"correct","most","1","Najwięcej pies zjadł rogalików.",7.71378461659875,"obj","incongruent"
"309","v1p4","no","2","10_filler-no_Trgt-3_find.png","78","2","1258065.00","1255657.70",2407,"correct","filler","1","Miś znalazł cztery wieszaki.",7.78613643778307,"obj","incongruent"
"310","v1p4","no","2","10_most-no-sfof_trgt3_find.png","30","2","801699.00","799434.19",2264,"correct","most","1","Najwięcej zegarków znalazł pies.",7.72488843932307,"subj","incongruent"
"311","v1p4","no","2","11_filler-no_Trgt-5_catch.png","11","2","622071.00","614628.24",7442,"correct","filler","1","Pies złapał kilka żabek.",8.91489490890657,"obj","incongruent"
"312","v1p4","no","2","11_obj-nichtnur-no_trgt5_catch.png","39","2","914254.00","912394.29",1859,"correct","only","1","Królik złapał nie tylko motyle.",7.52779398772144,"obj","incongruent"
"313","v1p4","no","2","12_filler-no_Trgt-6_catch.png","15","2","665052.00","658492.38",6559,"correct","filler","1","Osioł złapał cztery pająki.",8.78859343129374,"obj","incongruent"
"314","v1p4","no","2","12_subj-nichtnur-no_trgt3_catch.png","95","2","1418621.00","1414531.82",4089,"correct","only","1","Piłki złapał nie tylko osioł.",8.31605572036464,"subj","incongruent"
"315","v1p4","no","2","13_filler-no_Trgt-5_bring.png","85","2","1346780.00","1344885.87",1894,"correct","filler","1","Pies przyniósł trzy linijki.",7.54644627374602,"obj","incongruent"
"316","v1p4","no","2","13_most-no-sfof_trgt5_bring.png","102","2","1469883.00","1467045.43",2837,"correct","most","1","Najwięcej lew przyniósł gwoździ.",7.95050243480885,"obj","incongruent"
"317","v1p4","no","2","14_filler-no_Trgt-3_bring.png","14","2","651029.00","647992.98",3036,"correct","filler","1","Lew przyniósł pięć siekierek.",8.01829613851552,"obj","incongruent"
"318","v1p4","no","2","14_most-no-sfof_trgt5_bring.png","101","2","1462617.00","1460045.84",2571,"correct","most","1","Najwięcej ołówków przyniósł prosiaczek.",7.85205020726589,"subj","incongruent"
"319","v1p4","no","2","15_filler-no_Trgt-6_paint.png","10","2","609866.00","606728.70",3137,"correct","filler","1","Prosiaczek namalował pięć krzyżyków.",8.05102220819068,"obj","incongruent"
"320","v1p4","no","2","15_obj-nichtnur-no_trgt6_paint.png","66","2","1166940.00","1164429.66",2510,"correct","only","1","Osioł namalował nie tylko słonka.",7.82803803212583,"obj","incongruent"
"321","v1p4","no","2","16_filler-no_Trgt-5_paint.png","51","2","1009008.00","1006772.16",2235,"correct","filler","1","Osioł namalował cztery drzewka.",7.71199650704767,"obj","incongruent"
"322","v1p4","no","2","16_subj-nichtnur-no_trgt5_paint.png","92","2","1395666.00","1393733.02",1932,"correct","only","1","Trójkąty namalował nie tylko osioł.",7.56631101477246,"subj","incongruent"
"323","v1p4","no","2","17_filler-no_Trgt-6_take.png","75","2","1236100.00","1232792.38",3307,"correct","filler","1","Królik zabrał cztery świeczki.",8.10379671298179,"obj","incongruent"
"324","v1p4","no","2","17_most-no-sfof_trgt3_take.png","63","2","1140916.00","1138131.19",2784,"correct","most","1","Najwięcej pies zabrał pudełek.",7.93164402145431,"obj","incongruent"
"325","v1p4","no","2","18_filler-no_Trgt-5_take.png","72","2","1213610.00","1209327.07",4282,"correct","filler","1","Królik zabrał sześć markerów.",8.36217546914963,"obj","incongruent"
"326","v1p4","no","2","18_most-no-sfof_trgt3_take.png","84","2","1340924.00","1337886.27",3037,"correct","most","1","Najwięcej książek zabrał osioł.",8.01862546504575,"subj","incongruent"
"327","v1p4","no","2","19_filler-no_Trgt-4_win.png","31","2","852112.00","849581.28",2530,"correct","filler","1","Miś wygrał trzy pisanki.",7.83597458172157,"obj","incongruent"
"328","v1p4","no","2","19_obj-nichtnur-no_trgt5_win.png","81","2","1318613.00","1314737.61",3875,"correct","only","1","Lew wygrał nie tylko lizaki.",8.26230094178745,"obj","incongruent"
"329","v1p4","no","2","2_filler-no_Trgt-5_eat.png","26","2","767302.00","762952.96",4349,"correct","filler","1","Miś zjadł kilka jabłek.",8.37770121259764,"obj","incongruent"
"330","v1p4","no","2","2_most-no-sfof_trgt5_eat.png","96","2","1426929.00","1423197.98",3731,"correct","most","1","Najwięcej ziemniaków zjadł lew.",8.22443157322116,"subj","incongruent"
"331","v1p4","no","2","20_filler-no_Trgt-3_win.png","18","2","690686.00","686774.06",3911,"correct","filler","1","Miś wygrał sześć medali.",8.27154837475551,"obj","incongruent"
"332","v1p4","no","2","20_subj-nichtnur-no_trgt6_win.png","99","2","1449357.00","1445829.99",3527,"correct","only","1","Gwiazdki wygrał nie tylko miś.",8.16820293023605,"subj","incongruent"
"333","v1p4","no","2","21_filler-no_Trgt-4_throw away.png","79","2","1303474.00","1301055.06",2418,"correct","filler","1","Osioł wyrzucił pięć smoczków.",7.79069603117474,"obj","incongruent"
"334","v1p4","no","2","21_most-no-sfof_trgt4_throw away.png","46","2","971420.00","969440.98",1979,"correct","most","1","Najwięcej prosiaczek wyrzucił czapek.",7.59034694560257,"obj","incongruent"
"335","v1p4","no","2","22_filler-no_Trgt-4_throw away.png","28","2","785176.00","782068.51",3107,"correct","filler","1","Pies wyrzucił sześć szminek.",8.04141290939305,"obj","incongruent"
"336","v1p4","no","2","22_most-no-sfof_trgt4_throw away.png","24","2","750448.00","746003.96",4444,"correct","most","1","Najwięcej misiów wyrzucił osioł.",8.39931015075952,"subj","incongruent"
"337","v1p4","no","2","23_filler-no_Trgt-5_steal.png","94","2","1409818.00","1407948.86",1869,"correct","filler","1","Lew ukradł trzy talerze.",7.53315880745556,"obj","incongruent"
"338","v1p4","no","2","23_obj-nichtnur-no_trgt4_steal.png","38","2","907736.00","905278.05",2457,"correct","only","1","Pies ukradł nie tylko cytryny.",7.80669637252118,"obj","incongruent"
"339","v1p4","no","2","24_filler-no_Trgt-4_steal.png","36","2","893307.00","891328.86",1978,"correct","filler","1","Prosiaczek ukradł sześć kapeluszy.",7.58984151218266,"obj","incongruent"
"340","v1p4","no","2","24_subj-nichtnur-no_trgt4_steal.png","74","2","1228448.00","1225242.80",3205,"correct","only","1","Noże ukradł nie tylko prosiaczek.",8.07246736935477,"subj","incongruent"
"341","v1p4","no","2","3_filler-no_Trgt-3_break.png","62","2","1132936.00","1130981.61",1954,"correct","filler","1","Osioł popsuł parę zegarów.",7.57763383260273,"obj","incongruent"
"342","v1p4","no","2","3_obj-nichtnur-no_trgt3_break.png","53","2","1026464.00","1021521.29",4942,"correct","only","1","Królik popsuł nie tylko telefony.",8.50552538654856,"obj","incongruent"
"343","v1p4","no","2","4_filler-no_Trgt-4_break.png","55","2","1081791.00","1079684.59",2106,"correct","filler","1","Pies popsuł kilka suszarek.",7.65254569269392,"obj","incongruent"
"344","v1p4","no","2","4_subj-nichtnur-no_trgt4_break.png","64","2","1152864.00","1145764.08",7099,"correct","only","1","Zszywacze popsuł nie tylko pies.",8.86770920803939,"subj","incongruent"
"345","v1p4","no","2","5_filler-no_Trgt-6_buy.png","76","2","1243475.00","1240291.92",3183,"correct","filler","1","Lew kupił kilka butelek.",8.06557942728209,"obj","incongruent"
"346","v1p4","no","2","5_most-no-sfof_trgt3_buy.png","47","2","979618.00","976640.55",2977,"correct","most","1","Najwięcej królik kupił pomidorów.",7.99867136101578,"obj","incongruent"
"347","v1p4","no","2","6_filler-no_Trgt-4_buy.png","45","2","964500.00","961708.09",2791,"correct","filler","1","Prosiaczek kupił kilka hotdogów.",7.93415523353632,"obj","incongruent"
"348","v1p4","no","2","6_most-no-sfof_trgt4_buy.png","89","2","1372718.00","1370901.02",1816,"correct","most","1","Najwięcej szczoteczek kupił królik.",7.50439155916124,"subj","incongruent"
"349","v1p4","no","2","7_filler-no_Trgt-3_collect.png","100","2","1455021.00","1453079.59",1941,"correct","filler","1","Lew zebrał parę róż.",7.57095858316901,"obj","incongruent"
"350","v1p4","no","2","7_obj-nichtnur-no_trgt6_collect.png","20","2","711386.00","707056.22",4329,"correct","only","1","Pies zebrał nie tylko grzyby.",8.37309184744198,"obj","incongruent"
"351","v1p4","no","2","8_filler-no_Trgt-6_collect.png","90","4","1382435.00","1377100.66",5334,"incorrect","filler","1","Prosiaczek zebrał kilka znaczków.",8.58185670474196,"obj","incongruent"
"352","v1p4","no","2","8_subj-nichtnur-no_trgt6_collect.png","9","2","600374.00","593079.49",7294,"correct","only","1","Kamienie zebrał nie tylko prosiaczek.",8.89480737136862,"subj","incongruent"
"353","v1p4","no","2","9_filler-no_Trgt-6_find.png","19","2","701222.00","695706.87",5515,"correct","filler","1","Królik znalazł trzy cygara.",8.6152269316876,"obj","incongruent"
"354","v1p4","no","2","9_most-no-sfof_trgt6_find.png","29","2","794173.00","790218.07",3954,"correct","most","1","Najwięcej osioł znalazł kluczy.",8.28248300373056,"obj","incongruent"
"355","v1p4","no","2","practice_4.png","6","2","532116.00","527100.00",5016,"correct","practice","1","Pies znalazł siedem kul.",8.52038808231276,"obj","incongruent"
"356","v1p4","no","2","practice_5.png","5","2","521093.00","516533.95",4559,"correct","practice","1","Osioł namalował wiele ludzików.",8.42485858021344,"obj","incongruent"
"357","v1p4","no","2","practice_6.png","4","2","510934.00","507684.45",3249,"correct","practice","1","Lew nie wygrał żadnych chorągiewek.",8.0861025356691,"obj","incongruent"
"358","v1p4","yes","4","1_filler-yes_Trgt-3_eat.png","87","4","1360185.00","1357735.11",2449,"correct","filler","1","Pies zjadł parę główek kapusty.",7.80343505695217,"obj","congruent"
"359","v1p4","yes","4","1_most-yes-sfot_trgt6_eat.png","33","2","868340.00","865597.01",2742,"incorrect","most","1","Najwięcej lew zjadł ciastek.",7.91644286012226,"obj","congruent"
"360","v1p4","yes","4","10_filler-yes_Trgt-3_find.png","49","4","994577.00","992339.66",2237,"correct","filler","1","Pies znalazł trzy żarówki.",7.71289096149013,"obj","congruent"
"361","v1p4","yes","4","10_most-yes-stot_trgt3_find.png","73","4","1220654.00","1217976.57",2677,"correct","most","1","Najwięcej okularów znalazł osioł.",7.89245204352035,"subj","congruent"
"362","v1p4","yes","4","11_filler-yes_Trgt-5_catch.png","65","4","1159536.00","1157246.75",2289,"correct","filler","1","Lew złapał dużo żabek.",7.73587031995257,"obj","congruent"
"363","v1p4","yes","4","11_most-yes-sfot_trgt5_catch.png","16","4","673656.00","670391.69",3264,"correct","only","1","Królik złapał nie tylko biedronki.",8.090708716084,"obj","congruent"
"364","v1p4","yes","4","12_filler-yes_Trgt-6_catch.png","8","4","587713.00","583980.02",3732,"correct","filler","1","Prosiaczek złapał sześć mrówek.",8.22469956196723,"obj","congruent"
"365","v1p4","yes","4","12_most-yes-stot_trgt3_catch.png","98","4","1440547.00","1437563.81",2983,"correct","only","1","Balony złapał nie tylko królik.",8.00068478451475,"subj","congruent"
"366","v1p4","yes","4","13_filler-yes_Trgt-5_bring.png","93","4","1403591.00","1400215.98",3375,"correct","filler","1","Lew przyniósł pięć długopisów.",8.12415060330663,"obj","congruent"
"367","v1p4","yes","4","13_most-yes-sfot_trgt5_bring.png","69","4","1191196.00","1186711.72",4484,"correct","most","1","Najwięcej miś przyniósł spinaczy.",8.40827078419205,"obj","congruent"
"368","v1p4","yes","4","14_filler-yes_Trgt-3_bring.png","56","4","1088149.00","1086334.19",1814,"correct","filler","1","Prosiaczek przyniósł trzy młotki.",7.50328963067508,"obj","congruent"
"369","v1p4","yes","4","14_most-yes-stot_trgt5_bring.png","21","4","720046.00","715722.38",4323,"correct","most","1","Najwięcej kredek przyniósł miś.",8.37170488466763,"subj","congruent"
"370","v1p4","yes","4","15_filler-yes_Trgt-6_paint.png","82","4","1325900.00","1322887.12",3012,"correct","filler","1","Królik namalował sześć kresek.",8.01035958891978,"obj","congruent"
"371","v1p4","yes","4","15_most-yes-sfot_trgt6_paint.png","41","4","929125.00","926326.81",2798,"correct","only","1","Osioł namalował nie tylko chmurki.",7.93666015522543,"obj","congruent"
"372","v1p4","yes","4","16_filler-yes_Trgt-5_paint.png","7","4","577757.00","573380.62",4376,"correct","filler","1","Miś namalował pięć kwiatków.",8.38389034410182,"obj","congruent"
"373","v1p4","yes","4","16_most-yes-stot_trgt5_paint.png","70","4","1197497.00","1195927.85",1569,"correct","only","1","Kółka namalował nie tylko pies.",7.35819375273303,"subj","congruent"
"374","v1p4","yes","4","17_filler-yes_Trgt-6_take.png","67","4","1174091.00","1171762.59",2328,"correct","filler","1","Pies zabrał sześć zapałek.",7.75276480885133,"obj","congruent"
"375","v1p4","yes","4","17_most-yes-sfot_trgt3_take.png","34","2","876361.00","873296.58",3064,"incorrect","most","1","Najwięcej lew zabrał torebek.",8.02747653086048,"obj","congruent"
"376","v1p4","yes","4","18_filler-yes_Trgt-5_take.png","44","4","956570.00","950908.71",5661,"correct","filler","1","Osioł zabrał pięć piór.",8.64135583403666,"obj","congruent"
"377","v1p4","yes","4","18_most-yes-stot_trgt3_take.png","27","4","777290.00","773369.03",3920,"correct","most","1","Najwięcej zeszytów zabrał prosiaczek.",8.27384693278451,"subj","congruent"
"378","v1p4","yes","4","19_filler-yes_Trgt-4_win.png","52","4","1016671.00","1013305.11",3365,"correct","filler","1","Pies wygrał cztery kurczaczki.",8.12118324207883,"obj","congruent"
"379","v1p4","yes","4","19_most-yes-sfot_trgt5_win.png","54","4","1035721.00","1030937.42",4783,"correct","only","1","Lew wygrał nie tylko cukierki.",8.4728232436803,"obj","congruent"
"380","v1p4","yes","4","2_filler-yes_Trgt-5_eat.png","35","4","884966.00","881529.42",3436,"correct","filler","1","Lew zjadł dużo jabłek.",8.14206328310415,"obj","congruent"
"381","v1p4","yes","4","2_most-yes-stot_trgt5_eat.png","58","4","1104306.00","1101716.65",2589,"correct","most","1","Najwięcej ogórków zjadł prosiaczek.",7.85902697975154,"subj","congruent"
"382","v1p4","yes","4","20_filler-yes_Trgt-3_win.png","59","4","1111761.00","1108966.21",2794,"correct","filler","1","Lew wygrał trzy puchary.",7.93522953981691,"obj","congruent"
"383","v1p4","yes","4","20_most-yes-stot_trgt6_win.png","12","4","631320.00","627127.51",4192,"correct","only","1","Serduszka wygrał nie tylko prosiaczek.",8.34093322600088,"subj","congruent"
"384","v1p4","yes","4","21_filler-yes_Trgt-4_throw away.png","86","4","1353312.00","1351202.16",2109,"correct","filler","1","Prosiaczek wyrzucił cztery poduszki.",7.65396918047877,"obj","congruent"
"385","v1p4","yes","4","21_most-yes-sfot_trgt4_throw away.png","23","2","740071.00","735737.89",4333,"incorrect","most","1","Najwięcej królik wyrzucił skarpetek.",8.37401542173991,"obj","congruent"
"386","v1p4","yes","4","22_filler-yes_Trgt-4_throw away.png","71","4","1204287.00","1201744.17",2542,"correct","filler","1","Osioł wyrzucił cztery paski.",7.8407064517494,"obj","congruent"
"387","v1p4","yes","4","22_most-yes-stot_trgt4_throw away.png","50","4","1001883.00","999339.25",2543,"correct","most","1","Najwięcej klocków wyrzucił miś.",7.84109976542212,"subj","congruent"
"388","v1p4","yes","4","23_filler-yes_Trgt-5_steal.png","61","4","1126100.00","1123282.06",2817,"correct","filler","1","Królik ukradł pięć kubków.",7.94342776787637,"obj","congruent"
"389","v1p4","yes","4","23_most-yes-sfot_trgt4_steal.png","13","4","641603.00","638076.89",3526,"correct","only","1","Pies ukradł nie tylko banany.",8.16791936295782,"obj","congruent"
"390","v1p4","yes","4","24_filler-yes_Trgt-4_steal.png","25","4","757387.00","754486.79",2900,"correct","filler","1","Królik ukradł cztery fajki.",7.97246601597457,"obj","congruent"
"391","v1p4","yes","4","24_most-yes-stot_trgt4_steal.png","88","4","1366522.00","1364584.71",1937,"correct","only","1","Łyżki ukradł nie tylko osioł.",7.568895663407,"subj","congruent"
"392","v1p4","yes","4","3_filler-yes_Trgt-3_break.png","32","4","860408.00","858080.77",2327,"correct","filler","1","Prosiaczek popsuł parę pompek.",7.75233516330229,"obj","congruent"
"393","v1p4","yes","4","3_most-yes-sfot_trgt3_break.png","37","4","900614.00","898178.45",2435,"correct","only","1","Królik popsuł nie tylko kalkulatory.",7.79770203551669,"obj","congruent"
"394","v1p4","yes","4","4_filler-yes_Trgt-4_break.png","22","4","729799.00","724871.85",4927,"correct","filler","1","Osioł popsuł kilka suszarek.",8.50248556254396,"obj","congruent"
"395","v1p4","yes","4","4_most-yes-stot_trgt4_break.png","77","4","1251390.00","1248608.12",2781,"correct","only","1","Kostki zepsuł nie tylko miś.",7.93056585423396,"subj","congruent"
"396","v1p4","yes","4","5_filler-yes_Trgt-6_buy.png","91","4","1388998.00","1387066.76",1931,"correct","filler","1","Królik kupił dużo butelek.",7.56579328242851,"obj","congruent"
"397","v1p4","yes","4","5_most-yes-sfot_trgt3_buy.png","80","4","1310469.00","1307771.35",2697,"correct","most","1","Najwięcej pies kupił papryk.",7.89989532313973,"obj","congruent"
"398","v1p4","yes","4","6_filler-yes_Trgt-4_buy.png","48","4","987737.00","984540.10",3196,"correct","filler","1","Królik kupił kilka hotdogów.",8.06965530688617,"obj","congruent"
"399","v1p4","yes","4","6_most-yes-stot_trgt4_buy.png","57","2","1096953.00","1092783.82",4169,"incorrect","most","1","Najwięcej ręczników kupił osioł.",8.3354314778808,"subj","congruent"
"400","v1p4","yes","4","7_filler-yes_Trgt-3_collect.png","97","4","1433222.00","1430897.53",2324,"correct","filler","1","Miś zebrał parę róż.",7.7510451179718,"obj","congruent"
"401","v1p4","yes","4","7_most-yes-sfot_trgt6_collect.png","43","4","945572.00","943259.18",2312,"correct","only","1","Pies zebrał nie tylko truskawki.",7.74586822979227,"obj","congruent"
"402","v1p4","yes","4","8_filler-yes_Trgt-6_collect.png","68","4","1182192.00","1178562.18",3629,"correct","filler","1","Miś zebrał dużo znaczków.",8.19671240721307,"obj","congruent"
"403","v1p4","yes","4","8_most-yes-stot_trgt6_collect.png","17","4","682144.00","680141.11",2002,"correct","only","1","Liście zebrał nie tylko lew.",7.60190195987517,"subj","congruent"
"404","v1p4","yes","4","9_filler-yes_Trgt-6_find.png","83","4","1333226.00","1330053.40",3172,"correct","filler","1","Osioł znalazł sześć zapalniczek.",8.06211758275474,"obj","congruent"
"405","v1p4","yes","4","9_most-yes-sfot_trgt6_find.png","42","4","938544.00","934093.05",4450,"correct","most","1","Najwięcej prosiaczek znalazł guzików.",8.40065937516029,"obj","congruent"
"406","v1p4","yes","4","practice_1.png","3","4","501205.00","497735.04",3469,"correct","practice","1","Lew zjadł dużo kiełbasek.",8.15162164696975,"obj","congruent"
"407","v1p4","yes","4","practice_2.png","2","4","493184.00","489485.51",3698,"correct","practice","1","Prosiaczek wypił mało herbaty.",8.21554741194707,"obj","congruent"
"408","v1p4","yes","4","practice_3.png","1","4","483962.00","476919.57",7042,"correct","practice","1","Miś przyniósł dwa kasztany.",8.859647499715,"obj","congruent"
"409","v1p5","no","2","1_filler-no_Trgt-3_eat.png","59","2","716593.00","715022.65",1570,"correct","filler","1","Miś zjadł parę arbuzów.",7.35883089834235,"obj","incongruent"
"410","v1p5","no","2","1_most-no-sfof_trgt6_eat.png","32","2","504229.00","502332.88",1896,"correct","most","1","Najwięcej pies zjadł rogalików.",7.54750168281497,"obj","incongruent"
"411","v1p5","no","2","10_filler-no_Trgt-3_find.png","50","2","622743.00","621660.49",1082,"correct","filler","1","Miś znalazł cztery wieszaki.",6.98656645940643,"obj","incongruent"
"412","v1p5","no","2","10_most-no-sfof_trgt3_find.png","74","2","812576.00","810484.73",2091,"correct","most","1","Najwięcej zegarków znalazł pies.",7.64539769942863,"subj","incongruent"
"413","v1p5","no","2","11_filler-no_Trgt-5_catch.png","73","2","806165.00","802801.76",3363,"correct","filler","1","Pies złapał kilka żabek.",8.12058871174027,"obj","incongruent"
"414","v1p5","no","2","11_obj-nichtnur-no_trgt5_catch.png","93","2","961456.00","960027.52",1428,"correct","only","1","Królik złapał nie tylko motyle.",7.26403014289953,"obj","incongruent"
"415","v1p5","no","2","12_filler-no_Trgt-6_catch.png","85","2","907407.00","905730.15",1676,"correct","filler","1","Osioł złapał cztery pająki.",7.42416528104203,"obj","incongruent"
"416","v1p5","no","2","12_subj-nichtnur-no_trgt3_catch.png","99","2","1000440.00","998075.68",2364,"correct","only","1","Piłki złapał nie tylko osioł.",7.76811037852599,"subj","incongruent"
"417","v1p5","no","2","13_filler-no_Trgt-5_bring.png","47","2","604569.00","602894.72",1674,"correct","filler","1","Pies przyniósł trzy linijki.",7.42297125104942,"obj","incongruent"
"418","v1p5","no","2","13_most-no-sfof_trgt5_bring.png","45","2","591780.00","589512.01",2267,"correct","most","1","Najwięcej lew przyniósł gwoździ.",7.72621265050753,"obj","incongruent"
"419","v1p5","no","2","14_filler-no_Trgt-3_bring.png","98","2","993955.00","992109.30",1845,"correct","filler","1","Lew przyniósł pięć siekierek.",7.52023455647463,"obj","incongruent"
"420","v1p5","no","2","14_most-no-sfof_trgt5_bring.png","29","4","448275.00","444752.33",3522,"incorrect","most","1","Najwięcej ołówków przyniósł prosiaczek.",8.16678428905615,"subj","incongruent"
"421","v1p5","no","2","15_filler-no_Trgt-6_paint.png","14","2","341714.00","339307.39",2406,"correct","filler","1","Prosiaczek namalował pięć krzyżyków.",7.78572089653462,"obj","incongruent"
"422","v1p5","no","2","15_obj-nichtnur-no_trgt6_paint.png","64","2","748808.00","747404.43",1403,"correct","only","1","Osioł namalował nie tylko słonka.",7.24636808010246,"obj","incongruent"
"423","v1p5","no","2","16_filler-no_Trgt-5_paint.png","31","2","497804.00","496083.18",1720,"correct","filler","1","Osioł namalował cztery drzewka.",7.4500795698075,"obj","incongruent"
"424","v1p5","no","2","16_subj-nichtnur-no_trgt5_paint.png","25","2","416990.00","415437.08",1552,"correct","only","1","Trójkąty namalował nie tylko osioł.",7.34729970074316,"subj","incongruent"
"425","v1p5","no","2","17_filler-no_Trgt-6_take.png","55","2","686614.00","684307.45",2306,"correct","filler","1","Królik zabrał cztery świeczki.",7.743269700829,"obj","incongruent"
"426","v1p5","no","2","17_most-no-sfof_trgt3_take.png","75","2","818601.00","816684.42",1916,"correct","most","1","Najwięcej pies zabrał pudełek.",7.55799495853081,"obj","incongruent"
"427","v1p5","no","2","18_filler-no_Trgt-5_take.png","26","2","424688.00","422070.07",2617,"correct","filler","1","Królik zabrał sześć markerów.",7.86978390253015,"obj","incongruent"
"428","v1p5","no","2","18_most-no-sfof_trgt3_take.png","8","2","301830.00","299309.32",2520,"correct","most","1","Najwięcej książek zabrał osioł.",7.83201418050547,"subj","incongruent"
"429","v1p5","no","2","19_filler-no_Trgt-4_win.png","94","2","969361.00","966377.23",2983,"correct","filler","1","Miś wygrał trzy pisanki.",8.00068478451475,"obj","incongruent"
"430","v1p5","no","2","19_obj-nichtnur-no_trgt5_win.png","41","2","567142.00","565029.86",2112,"correct","only","1","Lew wygrał nie tylko lizaki.",7.65539064482615,"obj","incongruent"
"431","v1p5","no","2","2_filler-no_Trgt-5_eat.png","90","2","939464.00","937578.60",1885,"correct","filler","1","Miś zjadł kilka jabłek.",7.54168309988211,"obj","incongruent"
"432","v1p5","no","2","2_most-no-sfof_trgt5_eat.png","86","2","912345.00","911113.22",1231,"correct","most","1","Najwięcej ziemniaków zjadł lew.",7.11558212618445,"subj","incongruent"
"433","v1p5","no","2","20_filler-no_Trgt-3_win.png","76","2","823858.00","822417.48",1440,"correct","filler","1","Miś wygrał sześć medali.",7.27239839257005,"obj","incongruent"
"434","v1p5","no","2","20_subj-nichtnur-no_trgt6_win.png","48","2","610391.00","608861.10",1529,"correct","only","1","Gwiazdki wygrał nie tylko miś.",7.33236920592906,"subj","incongruent"
"435","v1p5","no","2","21_filler-no_Trgt-4_throw away.png","79","2","871771.00","869931.86",1839,"correct","filler","1","Osioł wyrzucił pięć smoczków.",7.51697722460432,"obj","incongruent"
"436","v1p5","no","2","21_most-no-sfof_trgt4_throw away.png","49","2","617622.00","614844.14",2777,"correct","most","1","Najwięcej prosiaczek wyrzucił czapek.",7.9291264873068,"obj","incongruent"
"437","v1p5","no","2","22_filler-no_Trgt-4_throw away.png","65","2","754861.00","753137.47",1723,"correct","filler","1","Pies wyrzucił sześć szminek.",7.45182223652793,"obj","incongruent"
"438","v1p5","no","2","22_most-no-sfof_trgt4_throw away.png","52","2","637732.00","633593.25",4138,"correct","most","1","Najwięcej misiów wyrzucił osioł.",8.32796785830549,"subj","incongruent"
"439","v1p5","no","2","23_filler-no_Trgt-5_steal.png","43","2","579163.00","577629.27",1533,"correct","filler","1","Lew ukradł trzy talerze.",7.33498187887181,"obj","incongruent"
"440","v1p5","no","2","23_obj-nichtnur-no_trgt4_steal.png","80","2","876699.00","875431.59",1267,"correct","only","1","Pies ukradł nie tylko cytryny.",7.14440718032114,"obj","incongruent"
"441","v1p5","no","2","24_filler-no_Trgt-4_steal.png","10","2","314258.00","312458.67",1799,"correct","filler","1","Prosiaczek ukradł sześć kapeluszy.",7.49498623395053,"obj","incongruent"
"442","v1p5","no","2","24_subj-nichtnur-no_trgt4_steal.png","58","2","710402.00","708739.63",1662,"correct","only","1","Noże ukradł nie tylko prosiaczek.",7.41577697541539,"subj","incongruent"
"443","v1p5","no","2","3_filler-no_Trgt-3_break.png","37","4","539634.00","537081.22",2552,"incorrect","filler","1","Osioł popsuł parę zegarów.",7.84463264446468,"obj","incongruent"
"444","v1p5","no","2","3_obj-nichtnur-no_trgt3_break.png","38","2","547791.00","544514.19",3276,"correct","only","1","Królik popsuł nie tylko telefony.",8.09437844497296,"obj","incongruent"
"445","v1p5","no","2","4_filler-no_Trgt-4_break.png","82","2","889411.00","886914.37",2496,"correct","filler","1","Pies popsuł kilka suszarek.",7.82244472948932,"obj","incongruent"
"446","v1p5","no","2","4_subj-nichtnur-no_trgt4_break.png","15","2","348618.00","346007.08",2610,"correct","only","1","Zszywacze popsuł nie tylko pies.",7.86710550031674,"subj","incongruent"
"447","v1p5","no","2","5_filler-no_Trgt-6_buy.png","40","2","560575.00","558413.53",2161,"correct","filler","1","Lew kupił kilka butelek.",7.67832635650689,"obj","incongruent"
"448","v1p5","no","2","5_most-no-sfof_trgt3_buy.png","61","2","729810.00","727788.70",2021,"correct","most","1","Najwięcej królik kupił pomidorów.",7.61134771740362,"obj","incongruent"
"449","v1p5","no","2","6_filler-no_Trgt-4_buy.png","87","2","918075.00","916412.97",1662,"correct","filler","1","Prosiaczek kupił kilka hotdogów.",7.41577697541539,"obj","incongruent"
"450","v1p5","no","2","6_most-no-sfof_trgt4_buy.png","11","2","320752.00","318525.07",2226,"correct","most","1","Najwięcej szczoteczek kupił królik.",7.70796153183549,"subj","incongruent"
"451","v1p5","no","2","7_filler-no_Trgt-3_collect.png","39","2","554319.00","552197.15",2121,"correct","filler","1","Lew zebrał parę róż.",7.65964295456468,"obj","incongruent"
"452","v1p5","no","2","7_obj-nichtnur-no_trgt6_collect.png","71","2","791589.00","790485.70",1103,"correct","only","1","Pies zebrał nie tylko grzyby.",7.0057890192535,"obj","incongruent"
"453","v1p5","no","2","8_filler-no_Trgt-6_collect.png","20","4","384303.00","379688.78",4614,"incorrect","filler","1","Prosiaczek zebrał kilka znaczków.",8.4368504387337,"obj","incongruent"
"454","v1p5","no","2","8_subj-nichtnur-no_trgt6_collect.png","53","2","643817.00","641992.82",1824,"correct","only","1","Kamienie zebrał nie tylko prosiaczek.",7.50878717063428,"subj","incongruent"
"455","v1p5","no","2","9_filler-no_Trgt-6_find.png","30","2","455572.00","453185.25",2386,"correct","filler","1","Królik znalazł trzy cygara.",7.77737360265786,"obj","incongruent"
"456","v1p5","no","2","9_most-no-sfof_trgt6_find.png","88","4","926340.00","923412.61",2927,"incorrect","most","1","Najwięcej osioł znalazł kluczy.",7.98173328669189,"obj","incongruent"
"457","v1p5","no","2","practice_4.png","6","2","248378.00","244828.61",3549,"correct","practice","1","Pies znalazł siedem kul.",8.1744211526465,"obj","incongruent"
"458","v1p5","no","2","practice_5.png","3","4","224025.00","222246.36",1778,"incorrect","practice","1","Osioł namalował wiele ludzików.",7.48324441607385,"obj","incongruent"
"459","v1p5","no","2","practice_6.png","1","4","202702.00","197897.53",4804,"incorrect","practice","1","Lew nie wygrał żadnych chorągiewek.",8.47720418319987,"obj","incongruent"
"460","v1p5","yes","4","1_filler-yes_Trgt-3_eat.png","24","4","410846.00","408720.72",2125,"correct","filler","1","Pies zjadł parę główek kapusty.",7.66152708135852,"obj","congruent"
"461","v1p5","yes","4","1_most-yes-sfot_trgt6_eat.png","35","4","523282.00","521098.65",2183,"correct","most","1","Najwięcej lew zjadł ciastek.",7.68845535654994,"obj","congruent"
"462","v1p5","yes","4","10_filler-yes_Trgt-3_find.png","84","4","901914.00","900080.41",1833,"correct","filler","1","Pies znalazł trzy żarówki.",7.5137092478397,"obj","congruent"
"463","v1p5","yes","4","10_most-yes-stot_trgt3_find.png","95","4","975156.00","973393.54",1762,"correct","most","1","Najwięcej okularów znalazł osioł.",7.47420480649612,"subj","congruent"
"464","v1p5","yes","4","11_filler-yes_Trgt-5_catch.png","16","4","354502.00","353023.41",1478,"correct","filler","1","Lew złapał dużo żabek.",7.29844510150815,"obj","congruent"
"465","v1p5","yes","4","11_most-yes-sfot_trgt5_catch.png","42","4","573414.00","571846.20",1567,"correct","only","1","Królik złapał nie tylko biedronki.",7.35691824235602,"obj","congruent"
"466","v1p5","yes","4","12_filler-yes_Trgt-6_catch.png","101","4","1013797.00","1011158.40",2638,"correct","filler","1","Prosiaczek złapał sześć mrówek.",7.87777633327726,"obj","congruent"
"467","v1p5","yes","4","12_most-yes-stot_trgt3_catch.png","56","4","696370.00","694706.97",1663,"correct","only","1","Balony złapał nie tylko królik.",7.41637847919293,"subj","congruent"
"468","v1p5","yes","4","13_filler-yes_Trgt-5_bring.png","62","2","736286.00","734155.06",2130,"incorrect","filler","1","Lew przyniósł pięć długopisów.",7.66387725870347,"obj","congruent"
"469","v1p5","yes","4","13_most-yes-sfot_trgt5_bring.png","81","4","882536.00","880664.67",1871,"correct","most","1","Najwięcej miś przyniósł spinaczy.",7.53422832627409,"obj","congruent"
"470","v1p5","yes","4","14_filler-yes_Trgt-3_bring.png","21","4","391114.00","388888.35",2225,"correct","filler","1","Prosiaczek przyniósł trzy młotki.",7.70751219460034,"obj","congruent"
"471","v1p5","yes","4","14_most-yes-stot_trgt5_bring.png","83","4","896314.00","893947.38",2366,"correct","most","1","Najwięcej kredek przyniósł miś.",7.76895604453833,"subj","congruent"
"472","v1p5","yes","4","15_filler-yes_Trgt-6_paint.png","46","4","598555.00","596178.37",2376,"correct","filler","1","Królik namalował sześć kresek.",7.77317368048254,"obj","congruent"
"473","v1p5","yes","4","15_most-yes-sfot_trgt6_paint.png","68","4","772513.00","771286.61",1226,"correct","only","1","Osioł namalował nie tylko chmurki.",7.11151211649616,"obj","congruent"
"474","v1p5","yes","4","16_filler-yes_Trgt-5_paint.png","77","4","829676.00","827700.56",1975,"correct","filler","1","Miś namalował pięć kwiatków.",7.58832367733522,"obj","congruent"
"475","v1p5","yes","4","16_most-yes-stot_trgt5_paint.png","63","4","743337.00","740704.75",2632,"correct","only","1","Kółka namalował nie tylko pies.",7.87549929244521,"subj","congruent"
"476","v1p5","yes","4","17_filler-yes_Trgt-6_take.png","57","4","704343.00","700823.33",3519,"correct","filler","1","Pies zabrał sześć zapałek.",8.16593213732158,"obj","congruent"
"477","v1p5","yes","4","17_most-yes-sfot_trgt3_take.png","78","2","835170.00","833283.62",1886,"incorrect","most","1","Najwięcej lew zabrał torebek.",7.5422134631934,"obj","congruent"
"478","v1p5","yes","4","18_filler-yes_Trgt-5_take.png","66","4","761519.00","759087.19",2431,"correct","filler","1","Osioł zabrał pięć piór.",7.79605797431612,"obj","congruent"
"479","v1p5","yes","4","18_most-yes-stot_trgt3_take.png","96","4","981769.00","979676.57",2092,"correct","most","1","Najwięcej zeszytów zabrał prosiaczek.",7.64587582518481,"subj","congruent"
"480","v1p5","yes","4","19_filler-yes_Trgt-4_win.png","102","4","1020890.00","1018091.40",2798,"correct","filler","1","Pies wygrał cztery kurczaczki.",7.93666015522543,"obj","congruent"
"481","v1p5","yes","4","19_most-yes-sfot_trgt5_win.png","70","4","786490.00","784335.98",2154,"correct","only","1","Lew wygrał nie tylko cukierki.",7.67508185771633,"obj","congruent"
"482","v1p5","yes","4","2_filler-yes_Trgt-5_eat.png","44","4","585221.00","583712.30",1508,"correct","filler","1","Lew zjadł dużo jabłek.",7.3185395485679,"obj","congruent"
"483","v1p5","yes","4","2_most-yes-stot_trgt5_eat.png","92","4","955723.00","952344.56",3378,"correct","most","1","Najwięcej ogórków zjadł prosiaczek.",8.12503909736775,"subj","congruent"
"484","v1p5","yes","4","20_filler-yes_Trgt-3_win.png","97","4","987661.00","985859.63",1801,"correct","filler","1","Lew wygrał trzy puchary.",7.49609734517596,"obj","congruent"
"485","v1p5","yes","4","20_most-yes-stot_trgt6_win.png","100","2","1006013.00","1004458.71",1554,"incorrect","only","1","Serduszka wygrał nie tylko prosiaczek.",7.34858753092759,"subj","congruent"
"486","v1p5","yes","4","21_filler-yes_Trgt-4_throw away.png","27","4","432736.00","430319.69",2416,"correct","filler","1","Prosiaczek wyrzucił cztery poduszki.",7.78986855905471,"obj","congruent"
"487","v1p5","yes","4","21_most-yes-sfot_trgt4_throw away.png","17","2","360136.00","358273.16",1862,"incorrect","most","1","Najwięcej królik wyrzucił skarpetek.",7.52940645783701,"obj","congruent"
"488","v1p5","yes","4","22_filler-yes_Trgt-4_throw away.png","9","4","308471.00","306792.30",1678,"correct","filler","1","Osioł wyrzucił cztery paski.",7.42535788702715,"obj","congruent"
"489","v1p5","yes","4","22_most-yes-stot_trgt4_throw away.png","89","4","933662.00","930528.96",3133,"correct","most","1","Najwięcej klocków wyrzucił miś.",8.04974629095219,"subj","congruent"
"490","v1p5","yes","4","23_filler-yes_Trgt-5_steal.png","23","4","404015.00","402021.04",1993,"correct","filler","1","Królik ukradł pięć kubków.",7.59739632021279,"obj","congruent"
"491","v1p5","yes","4","23_most-yes-sfot_trgt4_steal.png","67","4","766839.00","765386.89",1452,"correct","only","1","Pies ukradł nie tylko banany.",7.28069719538474,"obj","congruent"
"492","v1p5","yes","4","24_filler-yes_Trgt-4_steal.png","34","4","516555.00","514365.64",2189,"correct","filler","1","Królik ukradł cztery fajki.",7.69120009752286,"obj","congruent"
"493","v1p5","yes","4","24_most-yes-stot_trgt4_steal.png","36","4","533020.00","530764.85",2255,"correct","only","1","Łyżki ukradł nie tylko osioł.",7.72090525193678,"subj","congruent"
"494","v1p5","yes","4","3_filler-yes_Trgt-3_break.png","72","4","798757.00","795618.76",3138,"correct","filler","1","Prosiaczek popsuł parę pompek.",8.05134093329298,"obj","congruent"
"495","v1p5","yes","4","3_most-yes-sfot_trgt3_break.png","19","2","374774.00","372339.14",2434,"incorrect","only","1","Królik popsuł nie tylko kalkulatory.",7.79729127354747,"obj","congruent"
"496","v1p5","yes","4","4_filler-yes_Trgt-4_break.png","91","2","948200.00","943544.99",4655,"incorrect","filler","1","Osioł popsuł kilka suszarek.",8.44569718971117,"obj","congruent"
"497","v1p5","yes","4","4_most-yes-stot_trgt4_break.png","7","4","294661.00","290043.10",4617,"correct","only","1","Kostki zepsuł nie tylko miś.",8.43750042250699,"subj","congruent"
"498","v1p5","yes","4","5_filler-yes_Trgt-6_buy.png","51","4","629181.00","626976.88",2204,"correct","filler","1","Królik kupił dużo butelek.",7.6980291702728,"obj","congruent"
"499","v1p5","yes","4","5_most-yes-sfot_trgt3_buy.png","22","2","397247.00","395354.69",1892,"incorrect","most","1","Najwięcej pies kupił papryk.",7.54538974961182,"obj","congruent"
"500","v1p5","yes","4","6_filler-yes_Trgt-4_buy.png","13","4","335240.00","333341.01",1898,"correct","filler","1","Królik kupił kilka hotdogów.",7.54855597916987,"obj","congruent"
"501","v1p5","yes","4","6_most-yes-stot_trgt4_buy.png","33","4","510419.00","508615.92",1803,"correct","most","1","Najwięcej ręczników kupił osioł.",7.49720722320332,"subj","congruent"
"502","v1p5","yes","4","7_filler-yes_Trgt-3_collect.png","54","4","649311.00","647842.55",1468,"correct","filler","1","Miś zebrał parę róż.",7.29165620917446,"obj","congruent"
"503","v1p5","yes","4","7_most-yes-sfot_trgt6_collect.png","12","4","328686.00","325941.36",2744,"correct","only","1","Pies zebrał nie tylko truskawki.",7.91717198884578,"obj","congruent"
"504","v1p5","yes","4","8_filler-yes_Trgt-6_collect.png","18","4","367567.00","365306.14",2260,"correct","filler","1","Miś zebrał dużo znaczków.",7.72312009226633,"obj","congruent"
"505","v1p5","yes","4","8_most-yes-stot_trgt6_collect.png","28","4","440294.00","438419.30",1874,"correct","only","1","Liście zebrał nie tylko lew.",7.53583046279837,"subj","congruent"
"506","v1p5","yes","4","9_filler-yes_Trgt-6_find.png","69","4","780329.00","776669.69",3659,"correct","filler","1","Osioł znalazł sześć zapalniczek.",8.20494516501921,"obj","congruent"
"507","v1p5","yes","4","9_most-yes-sfot_trgt6_find.png","60","4","722547.00","721122.37",1424,"correct","most","1","Najwięcej prosiaczek znalazł guzików.",7.26122509197192,"obj","congruent"
"508","v1p5","yes","4","practice_1.png","5","4","239777.00","236895.66",2881,"correct","practice","1","Lew zjadł dużo kiełbasek.",7.96589273508453,"obj","congruent"
"509","v1p5","yes","4","practice_2.png","4","4","233436.00","229762.67",3673,"correct","practice","1","Prosiaczek wypił mało herbaty.",8.20876404581967,"obj","congruent"
"510","v1p5","yes","4","practice_3.png","2","4","216303.00","209230.31",7072,"correct","practice","1","Miś przyniósł dwa kasztany.",8.86389860431748,"obj","congruent"
"511","v1p6","no","2","1_filler-no_Trgt-3_eat.png","80","2","1372720.00","1368960.41",3759,"correct","filler","1","Miś zjadł parę arbuzów.",8.23190824356418,"obj","incongruent"
"512","v1p6","no","2","1_most-no-sfof_trgt6_eat.png","49","2","1010457.00","1006394.51",4062,"correct","most","1","Najwięcej pies zjadł rogalików.",8.30943074214033,"obj","incongruent"
"513","v1p6","no","2","10_filler-no_Trgt-3_find.png","8","2","544381.00","540383.59",3997,"correct","filler","1","Miś znalazł cztery wieszaki.",8.29329935871132,"obj","incongruent"
"514","v1p6","no","2","10_most-no-sfof_trgt3_find.png","89","2","1450204.00","1448223.26",1980,"correct","most","1","Najwięcej zegarków znalazł pies.",7.59085212368858,"subj","incongruent"
"515","v1p6","no","2","11_filler-no_Trgt-5_catch.png","93","2","1486991.00","1481288.34",5702,"correct","filler","1","Pies złapał kilka żabek.",8.64857226947262,"obj","incongruent"
"516","v1p6","no","2","11_obj-nichtnur-no_trgt5_catch.png","59","2","1126651.00","1125388.79",1262,"correct","only","1","Królik złapał nie tylko motyle.",7.14045304310116,"obj","incongruent"
"517","v1p6","no","2","12_filler-no_Trgt-6_catch.png","43","2","954237.00","948513.95",5723,"correct","filler","1","Osioł złapał cztery pająki.",8.6522484224091,"obj","incongruent"
"518","v1p6","no","2","12_subj-nichtnur-no_trgt3_catch.png","20","2","678406.00","675793.74",2612,"correct","only","1","Piłki złapał nie tylko osioł.",7.86787149039632,"subj","incongruent"
"519","v1p6","no","2","13_filler-no_Trgt-5_bring.png","62","2","1159294.00","1154904.04",4389,"correct","filler","1","Pies przyniósł trzy linijki.",8.38685668968823,"obj","incongruent"
"520","v1p6","no","2","13_most-no-sfof_trgt5_bring.png","21","2","687541.00","685093.30",2447,"correct","most","1","Najwięcej lew przyniósł gwoździ.",7.80261806344267,"obj","incongruent"
"521","v1p6","no","2","14_filler-no_Trgt-3_bring.png","96","2","1509089.00","1507237.08",1851,"correct","filler","1","Lew przyniósł pięć siekierek.",7.5234813125735,"obj","incongruent"
"522","v1p6","no","2","14_most-no-sfof_trgt5_bring.png","51","2","1025365.00","1022893.70",2471,"correct","most","1","Najwięcej ołówków przyniósł prosiaczek.",7.81237820598861,"subj","incongruent"
"523","v1p6","no","2","15_filler-no_Trgt-6_paint.png","66","2","1195635.00","1193235.52",2399,"correct","filler","1","Prosiaczek namalował pięć krzyżyków.",7.78280726283969,"obj","incongruent"
"524","v1p6","no","2","15_obj-nichtnur-no_trgt6_paint.png","64","2","1179956.00","1177769.59",2186,"correct","only","1","Osioł namalował nie tylko słonka.",7.68982866873648,"obj","incongruent"
"525","v1p6","no","2","16_filler-no_Trgt-5_paint.png","16","2","640423.00","636912.28",3510,"correct","filler","1","Osioł namalował cztery drzewka.",8.16337131645991,"obj","incongruent"
"526","v1p6","no","2","16_subj-nichtnur-no_trgt5_paint.png","60","4","1136644.00","1132638.44",4005,"incorrect","only","1","Trójkąty namalował nie tylko osioł.",8.29529885950246,"subj","incongruent"
"527","v1p6","no","2","17_filler-no_Trgt-6_take.png","88","2","1443432.00","1440156.99",3275,"correct","filler","1","Królik zabrał cztery świeczki.",8.09407314806935,"obj","incongruent"
"528","v1p6","no","2","17_most-no-sfof_trgt3_take.png","17","2","649670.00","647261.77",2408,"correct","most","1","Najwięcej pies zabrał pudełek.",7.78655180642871,"obj","incongruent"
"529","v1p6","no","2","18_filler-no_Trgt-5_take.png","19","2","669376.00","665627.57",3748,"correct","filler","1","Królik zabrał sześć markerów.",8.22897764335831,"obj","incongruent"
"530","v1p6","no","2","18_most-no-sfof_trgt3_take.png","38","2","901764.00","898533.03",3230,"correct","most","1","Najwięcej książek zabrał osioł.",8.0802374162167,"subj","incongruent"
"531","v1p6","no","2","19_filler-no_Trgt-4_win.png","30","2","781601.00","778022.16",3578,"correct","filler","1","Miś wygrał trzy pisanki.",8.18255926406867,"obj","incongruent"
"532","v1p6","no","2","19_obj-nichtnur-no_trgt5_win.png","82","2","1387443.00","1385709.61",1733,"correct","only","1","Lew wygrał nie tylko lizaki.",7.45760928971561,"obj","incongruent"
"533","v1p6","no","2","2_filler-no_Trgt-5_eat.png","71","4","1241812.00","1238666.67",3145,"incorrect","filler","1","Miś zjadł kilka jabłek.",8.05356916913454,"obj","incongruent"
"534","v1p6","no","2","2_most-no-sfof_trgt5_eat.png","67","2","1203879.00","1202335.07",1543,"correct","most","1","Najwięcej ziemniaków zjadł lew.",7.34148385236316,"subj","incongruent"
"535","v1p6","no","2","20_filler-no_Trgt-3_win.png","65","2","1188695.00","1185319.24",3375,"correct","filler","1","Miś wygrał sześć medali.",8.12415060330663,"obj","incongruent"
"536","v1p6","no","2","20_subj-nichtnur-no_trgt6_win.png","63","4","1169492.00","1165603.51",3888,"incorrect","only","1","Gwiazdki wygrał nie tylko miś.",8.26565016558033,"subj","incongruent"
"537","v1p6","no","2","21_filler-no_Trgt-4_throw away.png","78","2","1302304.00","1298497.12",3806,"correct","filler","1","Osioł wyrzucił pięć smoczków.",8.24433404785609,"obj","incongruent"
"538","v1p6","no","2","21_most-no-sfof_trgt4_throw away.png","11","4","577183.00","574215.31",2967,"incorrect","most","1","Najwięcej prosiaczek wyrzucił czapek.",7.99530662029082,"obj","incongruent"
"539","v1p6","no","2","22_filler-no_Trgt-4_throw away.png","90","2","1459951.00","1457156.17",2794,"correct","filler","1","Pies wyrzucił sześć szminek.",7.93522953981691,"obj","incongruent"
"540","v1p6","no","2","22_most-no-sfof_trgt4_throw away.png","73","4","1260425.00","1257699.10",2725,"incorrect","most","1","Najwięcej misiów wyrzucił osioł.",7.91022370709734,"subj","incongruent"
