rt,key_press,trial_type,trial_index,trial_index_global,time_elapsed,internal_chunk_id,subject,stimulus,sentence,Imagewinner,ratio1,px,win,responses
135597,32,text,0,0,135600,0-0,0FWq9,,,,,,,
-1,-1,single-stim,0,1,137102,0-0,0FWq9, ,,,,,,
16447,32,text,0,2,153550,0-0,0FWq9,,,,,,,
-1,-1,single-stim,0,3,153751,0-0,0FWq9,<p style=font-size:128px; text-align:center; margin-top:50%>+</p>,,,,,,
-1,-1,single-stim,0,4,153951,0-0,0FWq9,stimuli/fig2_rev_9d10_42px.png,,,,,,
-1,-1,single-stim,0,5,159151,0-0,0FWq9,<p style='font-size:60px; text-align:center; margin-top:50%'>?</p><p style='font-size:20px; text-align:center'>Press <strong>f</strong> for yes <strong>j</strong> for no.</p>,B is shorter than A.,rev,9d10,42px,nor,
-1,-1,single-stim,0,6,160651,0-0,0FWq9, ,,,,,,
2891,32,text,0,7,163542,0-0,0FWq9,,,,,,,
-1,-1,single-stim,0,8,163743,0-0,0FWq9,<p style=font-size:128px; text-align:center; margin-top:50%>+</p>,,,,,,
-1,-1,single-stim,0,9,163943,0-0,0FWq9,stimuli/fig2_rev_5d6_28px.png,,,,,,
1438,74,single-stim,0,10,165581,0-0,0FWq9,<p style='font-size:60px; text-align:center; margin-top:50%'>?</p><p style='font-size:20px; text-align:center'>Press <strong>f</strong> for yes <strong>j</strong> for no.</p>,B is shorter than A.,rev,5d6,28px.,nor,
-1,-1,single-stim,0,11,167082,0-0,0FWq9, ,,,,,,
3427,32,text,0,12,170509,0-0,0FWq9,,,,,,,
-1,-1,single-stim,0,13,170710,0-0,0FWq9,<p style=font-size:128px; text-align:center; margin-top:50%>+</p>,,,,,,
-1,-1,single-stim,0,14,170910,0-0,0FWq9,stimuli/fig2_rev_1d2_42px.png,,,,,,
1391,74,single-stim,0,15,172501,0-0,0FWq9,<p style='font-size:60px; text-align:center; margin-top:50%'>?</p><p style='font-size:20px; text-align:center'>Press <strong>f</strong> for yes <strong>j</strong> for no.</p>,B is taller than A.,rev,1d2,42px.,rev,
-1,-1,single-stim,0,16,174002,0-0,0FWq9, ,,,,,,
1354,32,text,0,17,175357,0-0,0FWq9,,,,,,,
-1,-1,single-stim,0,18,175557,0-0,0FWq9,<p style=font-size:128px; text-align:center; margin-top:50%>+</p>,,,,,,
-1,-1,single-stim,0,19,175757,0-0,0FWq9,stimuli/fig2_nor_9d10_28px.png,,,,,,
4719,74,single-stim,0,20,180676,0-0,0FWq9,<p style='font-size:60px; text-align:center; margin-top:50%'>?</p><p style='font-size:20px; text-align:center'>Press <strong>f</strong> for yes <strong>j</strong> for no.</p>,B is taller than A.,nor,9d10,28px,rev,
-1,-1,single-stim,0,21,182177,0-0,0FWq9, ,,,,,,
1859,32,text,0,22,184036,0-0,0FWq9,,,,,,,
-1,-1,single-stim,0,23,184237,0-0,0FWq9,<p style=font-size:128px; text-align:center; margin-top:50%>+</p>,,,,,,
-1,-1,single-stim,0,24,184437,0-0,0FWq9,stimuli/fig2_rev_1d2_42px.png,,,,,,
3312,74,single-stim,0,25,187949,0-0,0FWq9,<p style='font-size:60px; text-align:center; margin-top:50%'>?</p><p style='font-size:20px; text-align:center'>Press <strong>f</strong> for yes <strong>j</strong> for no.</p>,B is shorter than A.,rev,1d2,42px.,nor,
-1,-1,single-stim,0,26,189449,0-0,0FWq9, ,,,,,,
2579,32,text,0,27,192028,0-0,0FWq9,,,,,,,
-1,-1,single-stim,0,28,192229,0-0,0FWq9,<p style=font-size:128px; text-align:center; margin-top:50%>+</p>,,,,,,
-1,-1,single-stim,0,29,192429,0-0,0FWq9,stimuli/fig2_rev_9d10_28px.png,,,,,,
-1,-1,single-stim,0,30,197632,0-0,0FWq9,<p style='font-size:60px; text-align:center; margin-top:50%'>?</p><p style='font-size:20px; text-align:center'>Press <strong>f</strong> for yes <strong>j</strong> for no.</p>,B is taller than A.,rev,9d10,28px,rev,
-1,-1,single-stim,0,31,199132,0-0,0FWq9, ,,,,,,
2392,32,text,0,32,201525,0-0,0FWq9,,,,,,,
-1,-1,single-stim,0,33,201725,0-0,0FWq9,<p style=font-size:128px; text-align:center; margin-top:50%>+</p>,,,,,,
-1,-1,single-stim,0,34,201925,0-0,0FWq9,stimuli/fig2_nor_3d4_28px.png,,,,,,
3784,70,single-stim,0,35,205909,0-0,0FWq9,<p style='font-size:60px; text-align:center; margin-top:50%'>?</p><p style='font-size:20px; text-align:center'>Press <strong>f</strong> for yes <strong>j</strong> for no.</p>,B is shorter than A.,nor,3d4,28px.,nor,
-1,-1,single-stim,0,36,207409,0-0,0FWq9, ,,,,,,
460,32,text,0,37,207869,0-0,0FWq9,,,,,,,
-1,-1,single-stim,0,38,208070,0-0,0FWq9,<p style=font-size:128px; text-align:center; margin-top:50%>+</p>,,,,,,
-1,-1,single-stim,0,39,208270,0-0,0FWq9,stimuli/fig2_rev_7d8_28px.png,,,,,,
3086,74,single-stim,0,40,211557,0-0,0FWq9,<p style='font-size:60px; text-align:center; margin-top:50%'>?</p><p style='font-size:20px; text-align:center'>Press <strong>f</strong> for yes <strong>j</strong> for no.</p>,B is taller than A.,rev,7d8,28px.,rev,
-1,-1,single-stim,0,41,213057,0-0,0FWq9, ,,,,,,
1419,32,text,0,42,214476,0-0,0FWq9,,,,,,,
-1,-1,single-stim,0,43,214677,0-0,0FWq9,<p style=font-size:128px; text-align:center; margin-top:50%>+</p>,,,,,,
-1,-1,single-stim,0,44,214877,0-0,0FWq9,stimuli/fig2_nor_9d10_42px.png,,,,,,
3735,74,single-stim,0,45,218812,0-0,0FWq9,<p style='font-size:60px; text-align:center; margin-top:50%'>?</p><p style='font-size:20px; text-align:center'>Press <strong>f</strong> for yes <strong>j</strong> for no.</p>,B is taller than A.,nor,9d10,42px,rev,
-1,-1,single-stim,0,46,220312,0-0,0FWq9, ,,,,,,
292,32,text,0,47,220604,0-0,0FWq9,,,,,,,
-1,-1,single-stim,0,48,220804,0-0,0FWq9,<p style=font-size:128px; text-align:center; margin-top:50%>+</p>,,,,,,
-1,-1,single-stim,0,49,221004,0-0,0FWq9,stimuli/fig2_rev_3d4_28px.png,,,,,,
4168,70,single-stim,0,50,225372,0-0,0FWq9,<p style='font-size:60px; text-align:center; margin-top:50%'>?</p><p style='font-size:20px; text-align:center'>Press <strong>f</strong> for yes <strong>j</strong> for no.</p>,B is taller than A.,rev,3d4,28px.,rev,
-1,-1,single-stim,0,51,226873,0-0,0FWq9, ,,,,,,
1491,32,text,0,52,228364,0-0,0FWq9,,,,,,,
-1,-1,single-stim,0,53,228564,0-0,0FWq9,<p style=font-size:128px; text-align:center; margin-top:50%>+</p>,,,,,,
-1,-1,single-stim,0,54,228764,0-0,0FWq9,stimuli/fig2_nor_1d2_28px.png,,,,,,
3664,70,single-stim,0,55,232628,0-0,0FWq9,<p style='font-size:60px; text-align:center; margin-top:50%'>?</p><p style='font-size:20px; text-align:center'>Press <strong>f</strong> for yes <strong>j</strong> for no.</p>,B is shorter than A.,nor,1d2,28px.,nor,
-1,-1,single-stim,0,56,234128,0-0,0FWq9, ,,,,,,
659,32,text,0,57,234787,0-0,0FWq9,,,,,,,
-1,-1,single-stim,0,58,234988,0-0,0FWq9,<p style=font-size:128px; text-align:center; margin-top:50%>+</p>,,,,,,
-1,-1,single-stim,0,59,235188,0-0,0FWq9,stimuli/fig2_nor_5d6_42px.png,,,,,,
2447,70,single-stim,0,60,237835,0-0,0FWq9,<p style='font-size:60px; text-align:center; margin-top:50%'>?</p><p style='font-size:20px; text-align:center'>Press <strong>f</strong> for yes <strong>j</strong> for no.</p>,B is shorter than A.,nor,5d6,42px.,nor,
-1,-1,single-stim,0,61,239336,0-0,0FWq9, ,,,,,,
412,32,text,0,62,239748,0-0,0FWq9,,,,,,,
-1,-1,single-stim,0,63,239948,0-0,0FWq9,<p style=font-size:128px; text-align:center; margin-top:50%>+</p>,,,,,,
-1,-1,single-stim,0,64,240148,0-0,0FWq9,stimuli/fig2_nor_7d8_28px.png,,,,,,
3311,70,single-stim,0,65,243660,0-0,0FWq9,<p style='font-size:60px; text-align:center; margin-top:50%'>?</p><p style='font-size:20px; text-align:center'>Press <strong>f</strong> for yes <strong>j</strong> for no.</p>,B is taller than A.,nor,7d8,28px.,rev,
-1,-1,single-stim,0,66,245160,0-0,0FWq9, ,,,,,,
459,32,text,0,67,245620,0-0,0FWq9,,,,,,,
-1,-1,single-stim,0,68,245820,0-0,0FWq9,<p style=font-size:128px; text-align:center; margin-top:50%>+</p>,,,,,,
-1,-1,single-stim,0,69,246020,0-0,0FWq9,stimuli/fig2_nor_5d6_28px.png,,,,,,
2783,74,single-stim,0,70,249004,0-0,0FWq9,<p style='font-size:60px; text-align:center; margin-top:50%'>?</p><p style='font-size:20px; text-align:center'>Press <strong>f</strong> for yes <strong>j</strong> for no.</p>,B is taller than A.,nor,5d6,28px.,rev,
-1,-1,single-stim,0,71,250505,0-0,0FWq9, ,,,,,,
346,32,text,0,72,250851,0-0,0FWq9,,,,,,,
-1,-1,single-stim,0,73,251052,0-0,0FWq9,<p style=font-size:128px; text-align:center; margin-top:50%>+</p>,,,,,,
-1,-1,single-stim,0,74,251253,0-0,0FWq9,stimuli/fig2_nor_1d2_42px.png,,,,,,
4270,74,single-stim,0,75,255723,0-0,0FWq9,<p style='font-size:60px; text-align:center; margin-top:50%'>?</p><p style='font-size:20px; text-align:center'>Press <strong>f</strong> for yes <strong>j</strong> for no.</p>,B is taller than A.,nor,1d2,42px.,rev,
-1,-1,single-stim,0,76,257223,0-0,0FWq9, ,,,,,,
604,32,text,0,77,257827,0-0,0FWq9,,,,,,,
-1,-1,single-stim,0,78,258028,0-0,0FWq9,<p style=font-size:128px; text-align:center; margin-top:50%>+</p>,,,,,,
-1,-1,single-stim,0,79,258228,0-0,0FWq9,stimuli/fig2_nor_1d2_42px.png,,,,,,
951,70,single-stim,0,80,259379,0-0,0FWq9,<p style='font-size:60px; text-align:center; margin-top:50%'>?</p><p style='font-size:20px; text-align:center'>Press <strong>f</strong> for yes <strong>j</strong> for no.</p>,B is shorter than A.,nor,1d2,42px.,nor,
-1,-1,single-stim,0,81,260879,0-0,0FWq9, ,,,,,,
300,32,text,0,82,261179,0-0,0FWq9,,,,,,,
-1,-1,single-stim,0,83,261379,0-0,0FWq9,<p style=font-size:128px; text-align:center; margin-top:50%>+</p>,,,,,,
-1,-1,single-stim,0,84,261579,0-0,0FWq9,stimuli/fig2_rev_3d4_28px.png,,,,,,
1048,70,single-stim,0,85,262827,0-0,0FWq9,<p style='font-size:60px; text-align:center; margin-top:50%'>?</p><p style='font-size:20px; text-align:center'>Press <strong>f</strong> for yes <strong>j</strong> for no.</p>,B is shorter than A.,rev,3d4,28px.,nor,
-1,-1,single-stim,0,86,264327,0-0,0FWq9, ,,,,,,
1018,32,text,0,87,265347,0-0,0FWq9,,,,,,,
-1,-1,single-stim,0,88,265547,0-0,0FWq9,<p style=font-size:128px; text-align:center; margin-top:50%>+</p>,,,,,,
-1,-1,single-stim,0,89,265747,0-0,0FWq9,stimuli/fig2_rev_3d4_42px.png,,,,,,
1407,70,single-stim,0,90,267354,0-0,0FWq9,<p style='font-size:60px; text-align:center; margin-top:50%'>?</p><p style='font-size:20px; text-align:center'>Press <strong>f</strong> for yes <strong>j</strong> for no.</p>,B is shorter than A.,rev,3d4,42px.,nor,
-1,-1,single-stim,0,91,268855,0-0,0FWq9, ,,,,,,
339,32,text,0,92,269194,0-0,0FWq9,,,,,,,
-1,-1,single-stim,0,93,269395,0-0,0FWq9,<p style=font-size:128px; text-align:center; margin-top:50%>+</p>,,,,,,
-1,-1,single-stim,0,94,269595,0-0,0FWq9,stimuli/fig2_rev_5d6_42px.png,,,,,,
3615,74,single-stim,0,95,273410,0-0,0FWq9,<p style='font-size:60px; text-align:center; margin-top:50%'>?</p><p style='font-size:20px; text-align:center'>Press <strong>f</strong> for yes <strong>j</strong> for no.</p>,B is taller than A.,rev,5d6,42px.,rev,
-1,-1,single-stim,0,96,274910,0-0,0FWq9, ,,,,,,
908,32,text,0,97,275819,0-0,0FWq9,,,,,,,
-1,-1,single-stim,0,98,276019,0-0,0FWq9,<p style=font-size:128px; text-align:center; margin-top:50%>+</p>,,,,,,
-1,-1,single-stim,0,99,276219,0-0,0FWq9,stimuli/fig2_nor_5d6_28px.png,,,,,,
1663,70,single-stim,0,100,278082,0-0,0FWq9,<p style='font-size:60px; text-align:center; margin-top:50%'>?</p><p style='font-size:20px; text-align:center'>Press <strong>f</strong> for yes <strong>j</strong> for no.</p>,B is shorter than A.,nor,5d6,28px.,nor,
-1,-1,single-stim,0,101,279583,0-0,0FWq9, ,,,,,,
611,32,text,0,102,280194,0-0,0FWq9,,,,,,,
-1,-1,single-stim,0,103,280395,0-0,0FWq9,<p style=font-size:128px; text-align:center; margin-top:50%>+</p>,,,,,,
-1,-1,single-stim,0,104,280595,0-0,0FWq9,stimuli/fig2_rev_5d6_28px.png,,,,,,
927,70,single-stim,0,105,281722,0-0,0FWq9,<p style='font-size:60px; text-align:center; margin-top:50%'>?</p><p style='font-size:20px; text-align:center'>Press <strong>f</strong> for yes <strong>j</strong> for no.</p>,B is taller than A.,rev,5d6,28px.,rev,
-1,-1,single-stim,0,106,283223,0-0,0FWq9, ,,,,,,
299,32,text,0,107,283522,0-0,0FWq9,,,,,,,
-1,-1,single-stim,0,108,283722,0-0,0FWq9,<p style=font-size:128px; text-align:center; margin-top:50%>+</p>,,,,,,
-1,-1,single-stim,0,109,283922,0-0,0FWq9,stimuli/fig2_nor_5d6_42px.png,,,,,,
1384,74,single-stim,0,110,285506,0-0,0FWq9,<p style='font-size:60px; text-align:center; margin-top:50%'>?</p><p style='font-size:20px; text-align:center'>Press <strong>f</strong> for yes <strong>j</strong> for no.</p>,B is taller than A.,nor,5d6,42px.,rev,
-1,-1,single-stim,0,111,287006,0-0,0FWq9, ,,,,,,
251,32,text,0,112,287257,0-0,0FWq9,,,,,,,
-1,-1,single-stim,0,113,287458,0-0,0FWq9,<p style=font-size:128px; text-align:center; margin-top:50%>+</p>,,,,,,
-1,-1,single-stim,0,114,287658,0-0,0FWq9,stimuli/fig2_rev_1d2_28px.png,,,,,,
4600,74,single-stim,0,115,292458,0-0,0FWq9,<p style='font-size:60px; text-align:center; margin-top:50%'>?</p><p style='font-size:20px; text-align:center'>Press <strong>f</strong> for yes <strong>j</strong> for no.</p>,B is shorter than A.,rev,1d2,28px.,nor,
-1,-1,single-stim,0,116,293958,0-0,0FWq9, ,,,,,,
372,32,text,0,117,294330,0-0,0FWq9,,,,,,,
-1,-1,single-stim,0,118,294530,0-0,0FWq9,<p style=font-size:128px; text-align:center; margin-top:50%>+</p>,,,,,,
-1,-1,single-stim,0,119,294730,0-0,0FWq9,stimuli/fig2_nor_7d8_42px.png,,,,,,
1527,70,single-stim,0,120,296458,0-0,0FWq9,<p style='font-size:60px; text-align:center; margin-top:50%'>?</p><p style='font-size:20px; text-align:center'>Press <strong>f</strong> for yes <strong>j</strong> for no.</p>,B is shorter than A.,nor,7d8,42px.,nor,
-1,-1,single-stim,0,121,297958,0-0,0FWq9, ,,,,,,
299,32,text,0,122,298258,0-0,0FWq9,,,,,,,
-1,-1,single-stim,0,123,298458,0-0,0FWq9,<p style=font-size:128px; text-align:center; margin-top:50%>+</p>,,,,,,
-1,-1,single-stim,0,124,298658,0-0,0FWq9,stimuli/fig2_rev_5d6_42px.png,,,,,,
1191,74,single-stim,0,125,300049,0-0,0FWq9,<p style='font-size:60px; text-align:center; margin-top:50%'>?</p><p style='font-size:20px; text-align:center'>Press <strong>f</strong> for yes <strong>j</strong> for no.</p>,B is shorter than A.,rev,5d6,42px.,nor,
-1,-1,single-stim,0,126,301550,0-0,0FWq9, ,,,,,,
939,32,text,0,127,302490,0-0,0FWq9,,,,,,,
-1,-1,single-stim,0,128,302690,0-0,0FWq9,<p style=font-size:128px; text-align:center; margin-top:50%>+</p>,,,,,,
-1,-1,single-stim,0,129,302890,0-0,0FWq9,stimuli/fig2_rev_7d8_42px.png,,,,,,
1527,74,single-stim,0,130,304617,0-0,0FWq9,<p style='font-size:60px; text-align:center; margin-top:50%'>?</p><p style='font-size:20px; text-align:center'>Press <strong>f</strong> for yes <strong>j</strong> for no.</p>,B is shorter than A.,rev,7d8,42px.,nor,
-1,-1,single-stim,0,131,306117,0-0,0FWq9, ,,,,,,
886,32,text,0,132,307006,0-0,0FWq9,,,,,,,
-1,-1,single-stim,0,133,307207,0-0,0FWq9,<p style=font-size:128px; text-align:center; margin-top:50%>+</p>,,,,,,
-1,-1,single-stim,0,134,307407,0-0,0FWq9,stimuli/fig2_rev_3d4_42px.png,,,,,,
1041,70,single-stim,0,135,308649,0-0,0FWq9,<p style='font-size:60px; text-align:center; margin-top:50%'>?</p><p style='font-size:20px; text-align:center'>Press <strong>f</strong> for yes <strong>j</strong> for no.</p>,B is taller than A.,rev,3d4,42px.,rev,
-1,-1,single-stim,0,136,310149,0-0,0FWq9, ,,,,,,
508,32,text,0,137,310657,0-0,0FWq9,,,,,,,
-1,-1,single-stim,0,138,310858,0-0,0FWq9,<p style=font-size:128px; text-align:center; margin-top:50%>+</p>,,,,,,
-1,-1,single-stim,0,139,311058,0-0,0FWq9,stimuli/fig2_rev_7d8_42px.png,,,,,,
1111,70,single-stim,0,140,312369,0-0,0FWq9,<p style='font-size:60px; text-align:center; margin-top:50%'>?</p><p style='font-size:20px; text-align:center'>Press <strong>f</strong> for yes <strong>j</strong> for no.</p>,B is taller than A.,rev,7d8,42px.,rev,
-1,-1,single-stim,0,141,313869,0-0,0FWq9, ,,,,,,
1076,32,text,0,142,314945,0-0,0FWq9,,,,,,,
-1,-1,single-stim,0,143,315145,0-0,0FWq9,<p style=font-size:128px; text-align:center; margin-top:50%>+</p>,,,,,,
-1,-1,single-stim,0,144,315345,0-0,0FWq9,stimuli/fig2_nor_3d4_28px.png,,,,,,
808,70,single-stim,0,145,316353,0-0,0FWq9,<p style='font-size:60px; text-align:center; margin-top:50%'>?</p><p style='font-size:20px; text-align:center'>Press <strong>f</strong> for yes <strong>j</strong> for no.</p>,B is taller than A.,nor,3d4,28px.,rev,
-1,-1,single-stim,0,146,317853,0-0,0FWq9, ,,,,,,
812,32,text,0,147,318666,0-0,0FWq9,,,,,,,
-1,-1,single-stim,0,148,318866,0-0,0FWq9,<p style=font-size:128px; text-align:center; margin-top:50%>+</p>,,,,,,
-1,-1,single-stim,0,149,319066,0-0,0FWq9,stimuli/fig2_nor_1d2_28px.png,,,,,,
1190,70,single-stim,0,150,320456,0-0,0FWq9,<p style='font-size:60px; text-align:center; margin-top:50%'>?</p><p style='font-size:20px; text-align:center'>Press <strong>f</strong> for yes <strong>j</strong> for no.</p>,B is taller than A.,nor,1d2,28px.,rev,
-1,-1,single-stim,0,151,321957,0-0,0FWq9, ,,,,,,
1723,32,text,0,152,323680,0-0,0FWq9,,,,,,,
-1,-1,single-stim,0,153,323881,0-0,0FWq9,<p style=font-size:128px; text-align:center; margin-top:50%>+</p>,,,,,,
-1,-1,single-stim,0,154,324081,0-0,0FWq9,stimuli/fig2_nor_9d10_28px.png,,,,,,
1583,70,single-stim,0,155,325864,0-0,0FWq9,<p style='font-size:60px; text-align:center; margin-top:50%'>?</p><p style='font-size:20px; text-align:center'>Press <strong>f</strong> for yes <strong>j</strong> for no.</p>,B is shorter than A.,nor,9d10,28px,nor,
-1,-1,single-stim,0,156,327364,0-0,0FWq9, ,,,,,,
445,32,text,0,157,327809,0-0,0FWq9,,,,,,,
-1,-1,single-stim,0,158,328009,0-0,0FWq9,<p style=font-size:128px; text-align:center; margin-top:50%>+</p>,,,,,,
-1,-1,single-stim,0,159,328209,0-0,0FWq9,stimuli/fig2_rev_9d10_42px.png,,,,,,
1903,74,single-stim,0,160,330313,0-0,0FWq9,<p style='font-size:60px; text-align:center; margin-top:50%'>?</p><p style='font-size:20px; text-align:center'>Press <strong>f</strong> for yes <strong>j</strong> for no.</p>,B is taller than A.,rev,9d10,42px,rev,
-1,-1,single-stim,0,161,331813,0-0,0FWq9, ,,,,,,
739,32,text,0,162,332552,0-0,0FWq9,,,,,,,
-1,-1,single-stim,0,163,332753,0-0,0FWq9,<p style=font-size:128px; text-align:center; margin-top:50%>+</p>,,,,,,
-1,-1,single-stim,0,164,332953,0-0,0FWq9,stimuli/fig2_rev_1d2_28px.png,,,,,,
1055,70,single-stim,0,165,334208,0-0,0FWq9,<p style='font-size:60px; text-align:center; margin-top:50%'>?</p><p style='font-size:20px; text-align:center'>Press <strong>f</strong> for yes <strong>j</strong> for no.</p>,B is taller than A.,rev,1d2,28px.,rev,
-1,-1,single-stim,0,166,335708,0-0,0FWq9, ,,,,,,
260,32,text,0,167,335968,0-0,0FWq9,,,,,,,
-1,-1,single-stim,0,168,336168,0-0,0FWq9,<p style=font-size:128px; text-align:center; margin-top:50%>+</p>,,,,,,
-1,-1,single-stim,0,169,336368,0-0,0FWq9,stimuli/fig2_nor_3d4_42px.png,,,,,,
4175,74,single-stim,0,170,340744,0-0,0FWq9,<p style='font-size:60px; text-align:center; margin-top:50%'>?</p><p style='font-size:20px; text-align:center'>Press <strong>f</strong> for yes <strong>j</strong> for no.</p>,B is shorter than A.,nor,3d4,42px.,nor,
-1,-1,single-stim,0,171,342244,0-0,0FWq9, ,,,,,,
763,32,text,0,172,343008,0-0,0FWq9,,,,,,,
-1,-1,single-stim,0,173,343208,0-0,0FWq9,<p style=font-size:128px; text-align:center; margin-top:50%>+</p>,,,,,,
-1,-1,single-stim,0,174,343408,0-0,0FWq9,stimuli/fig2_nor_7d8_42px.png,,,,,,
880,74,single-stim,0,175,344488,0-0,0FWq9,<p style='font-size:60px; text-align:center; margin-top:50%'>?</p><p style='font-size:20px; text-align:center'>Press <strong>f</strong> for yes <strong>j</strong> for no.</p>,B is taller than A.,nor,7d8,42px.,rev,
-1,-1,single-stim,0,176,345988,0-0,0FWq9, ,,,,,,
828,32,text,0,177,346816,0-0,0FWq9,,,,,,,
-1,-1,single-stim,0,178,347017,0-0,0FWq9,<p style=font-size:128px; text-align:center; margin-top:50%>+</p>,,,,,,
-1,-1,single-stim,0,179,347217,0-0,0FWq9,stimuli/fig2_nor_3d4_42px.png,,,,,,
751,74,single-stim,0,180,348168,0-0,0FWq9,<p style='font-size:60px; text-align:center; margin-top:50%'>?</p><p style='font-size:20px; text-align:center'>Press <strong>f</strong> for yes <strong>j</strong> for no.</p>,B is taller than A.,nor,3d4,42px.,rev,
-1,-1,single-stim,0,181,349668,0-0,0FWq9, ,,,,,,
948,32,text,0,182,350616,0-0,0FWq9,,,,,,,
-1,-1,single-stim,0,183,350816,0-0,0FWq9,<p style=font-size:128px; text-align:center; margin-top:50%>+</p>,,,,,,
-1,-1,single-stim,0,184,351016,0-0,0FWq9,stimuli/fig2_nor_9d10_42px.png,,,,,,
711,70,single-stim,0,185,351928,0-0,0FWq9,<p style='font-size:60px; text-align:center; margin-top:50%'>?</p><p style='font-size:20px; text-align:center'>Press <strong>f</strong> for yes <strong>j</strong> for no.</p>,B is shorter than A.,nor,9d10,42px,nor,
-1,-1,single-stim,0,186,353428,0-0,0FWq9, ,,,,,,
355,32,text,0,187,353783,0-0,0FWq9,,,,,,,
-1,-1,single-stim,0,188,353984,0-0,0FWq9,<p style=font-size:128px; text-align:center; margin-top:50%>+</p>,,,,,,
-1,-1,single-stim,0,189,354184,0-0,0FWq9,stimuli/fig2_nor_7d8_28px.png,,,,,,
1287,70,single-stim,0,190,355671,0-0,0FWq9,<p style='font-size:60px; text-align:center; margin-top:50%'>?</p><p style='font-size:20px; text-align:center'>Press <strong>f</strong> for yes <strong>j</strong> for no.</p>,B is shorter than A.,nor,7d8,28px.,nor,
-1,-1,single-stim,0,191,357171,0-0,0FWq9, ,,,,,,
324,32,text,0,192,357495,0-0,0FWq9,,,,,,,
-1,-1,single-stim,0,193,357695,0-0,0FWq9,<p style=font-size:128px; text-align:center; margin-top:50%>+</p>,,,,,,
-1,-1,single-stim,0,194,357895,0-0,0FWq9,stimuli/fig2_rev_7d8_28px.png,,,,,,
1104,74,single-stim,0,195,359199,0-0,0FWq9,<p style='font-size:60px; text-align:center; margin-top:50%'>?</p><p style='font-size:20px; text-align:center'>Press <strong>f</strong> for yes <strong>j</strong> for no.</p>,B is shorter than A.,rev,7d8,28px.,nor,
-1,-1,single-stim,0,196,360699,0-0,0FWq9, ,,,,,,
564,32,text,0,197,361263,0-0,0FWq9,,,,,,,
-1,-1,single-stim,0,198,361463,0-0,0FWq9,<p style=font-size:128px; text-align:center; margin-top:50%>+</p>,,,,,,
-1,-1,single-stim,0,199,361663,0-0,0FWq9,stimuli/fig2_rev_9d10_28px.png,,,,,,
768,74,single-stim,0,200,362632,0-0,0FWq9,<p style='font-size:60px; text-align:center; margin-top:50%'>?</p><p style='font-size:20px; text-align:center'>Press <strong>f</strong> for yes <strong>j</strong> for no.</p>,B is shorter than A.,rev,9d10,28px,nor,
-1,-1,single-stim,0,201,364132,0-0,0FWq9, ,,,,,,
339,32,text,0,202,364471,0-0,0FWq9,,,,,,,
-1,-1,single-stim,0,203,364672,0-0,0FWq9,<p style=font-size:128px; text-align:center; margin-top:50%>+</p>,,,,,,
-1,-1,single-stim,0,204,364872,0-0,0FWq9,stimuli/fig2_nor_9d10_28px.png,,,,,,
1951,74,single-stim,0,205,367023,0-0,0FWq9,<p style='font-size:60px; text-align:center; margin-top:50%'>?</p><p style='font-size:20px; text-align:center'>Press <strong>f</strong> for yes <strong>j</strong> for no.</p>,A < B,nor,9d10,28px,rev,
-1,-1,single-stim,0,206,368523,0-0,0FWq9, ,,,,,,
396,32,text,0,207,368919,0-0,0FWq9,,,,,,,
-1,-1,single-stim,0,208,369119,0-0,0FWq9,<p style=font-size:128px; text-align:center; margin-top:50%>+</p>,,,,,,
-1,-1,single-stim,0,209,369319,0-0,0FWq9,stimuli/fig2_nor_7d8_42px.png,,,,,,
1536,74,single-stim,0,210,371055,0-0,0FWq9,<p style='font-size:60px; text-align:center; margin-top:50%'>?</p><p style='font-size:20px; text-align:center'>Press <strong>f</strong> for yes <strong>j</strong> for no.</p>,A < B,nor,7d8,42px.,rev,
-1,-1,single-stim,0,211,372555,0-0,0FWq9, ,,,,,,
3203,32,text,0,212,375758,0-0,0FWq9,,,,,,,
-1,-1,single-stim,0,213,375959,0-0,0FWq9,<p style=font-size:128px; text-align:center; margin-top:50%>+</p>,,,,,,
-1,-1,single-stim,0,214,376159,0-0,0FWq9,stimuli/fig2_rev_7d8_42px.png,,,,,,
1031,70,single-stim,0,215,377390,0-0,0FWq9,<p style='font-size:60px; text-align:center; margin-top:50%'>?</p><p style='font-size:20px; text-align:center'>Press <strong>f</strong> for yes <strong>j</strong> for no.</p>,A < B,rev,7d8,42px.,rev,
-1,-1,single-stim,0,216,378890,0-0,0FWq9, ,,,,,,
1021,32,text,0,217,379911,0-0,0FWq9,,,,,,,
-1,-1,single-stim,0,218,380111,0-0,0FWq9,<p style=font-size:128px; text-align:center; margin-top:50%>+</p>,,,,,,
-1,-1,single-stim,0,219,380311,0-0,0FWq9,stimuli/fig2_nor_1d2_42px.png,,,,,,
1120,70,single-stim,0,220,381631,0-0,0FWq9,<p style='font-size:60px; text-align:center; margin-top:50%'>?</p><p style='font-size:20px; text-align:center'>Press <strong>f</strong> for yes <strong>j</strong> for no.</p>,A > B,nor,1d2,42px.,nor,
-1,-1,single-stim,0,221,383131,0-0,0FWq9, ,,,,,,
683,32,text,0,222,383815,0-0,0FWq9,,,,,,,
-1,-1,single-stim,0,223,384015,0-0,0FWq9,<p style=font-size:128px; text-align:center; margin-top:50%>+</p>,,,,,,
-1,-1,single-stim,0,224,384215,0-0,0FWq9,stimuli/fig2_rev_9d10_42px.png,,,,,,
455,74,single-stim,0,225,384870,0-0,0FWq9,<p style='font-size:60px; text-align:center; margin-top:50%'>?</p><p style='font-size:20px; text-align:center'>Press <strong>f</strong> for yes <strong>j</strong> for no.</p>,A > B,rev,9d10,42px,nor,
-1,-1,single-stim,0,226,386371,0-0,0FWq9, ,,,,,,
435,32,text,0,227,386806,0-0,0FWq9,,,,,,,
-1,-1,single-stim,0,228,387007,0-0,0FWq9,<p style=font-size:128px; text-align:center; margin-top:50%>+</p>,,,,,,
-1,-1,single-stim,0,229,387207,0-0,0FWq9,stimuli/fig2_rev_5d6_42px.png,,,,,,
1087,70,single-stim,0,230,388494,0-0,0FWq9,<p style='font-size:60px; text-align:center; margin-top:50%'>?</p><p style='font-size:20px; text-align:center'>Press <strong>f</strong> for yes <strong>j</strong> for no.</p>,A < B,rev,5d6,42px.,rev,
-1,-1,single-stim,0,231,389994,0-0,0FWq9, ,,,,,,
652,32,text,0,232,390646,0-0,0FWq9,,,,,,,
-1,-1,single-stim,0,233,390846,0-0,0FWq9,<p style=font-size:128px; text-align:center; margin-top:50%>+</p>,,,,,,
-1,-1,single-stim,0,234,391046,0-0,0FWq9,stimuli/fig2_nor_3d4_28px.png,,,,,,
1920,70,single-stim,0,235,393166,0-0,0FWq9,<p style='font-size:60px; text-align:center; margin-top:50%'>?</p><p style='font-size:20px; text-align:center'>Press <strong>f</strong> for yes <strong>j</strong> for no.</p>,A < B,nor,3d4,28px.,rev,
-1,-1,single-stim,0,236,394666,0-0,0FWq9, ,,,,,,
1531,32,text,0,237,396198,0-0,0FWq9,,,,,,,
-1,-1,single-stim,0,238,396398,0-0,0FWq9,<p style=font-size:128px; text-align:center; margin-top:50%>+</p>,,,,,,
-1,-1,single-stim,0,239,396598,0-0,0FWq9,stimuli/fig2_nor_1d2_28px.png,,,,,,
872,74,single-stim,0,240,397670,0-0,0FWq9,<p style='font-size:60px; text-align:center; margin-top:50%'>?</p><p style='font-size:20px; text-align:center'>Press <strong>f</strong> for yes <strong>j</strong> for no.</p>,A < B,nor,1d2,28px.,rev,
-1,-1,single-stim,0,241,399171,0-0,0FWq9, ,,,,,,
923,32,text,0,242,400094,0-0,0FWq9,,,,,,,
-1,-1,single-stim,0,243,400294,0-0,0FWq9,<p style=font-size:128px; text-align:center; margin-top:50%>+</p>,,,,,,
-1,-1,single-stim,0,244,400494,0-0,0FWq9,stimuli/fig2_rev_3d4_42px.png,,,,,,
880,74,single-stim,0,245,401574,0-0,0FWq9,<p style='font-size:60px; text-align:center; margin-top:50%'>?</p><p style='font-size:20px; text-align:center'>Press <strong>f</strong> for yes <strong>j</strong> for no.</p>,A > B,rev,3d4,42px.,nor,
-1,-1,single-stim,0,246,403074,0-0,0FWq9, ,,,,,,
652,32,text,0,247,403726,0-0,0FWq9,,,,,,,
-1,-1,single-stim,0,248,403926,0-0,0FWq9,<p style=font-size:128px; text-align:center; margin-top:50%>+</p>,,,,,,
-1,-1,single-stim,0,249,404126,0-0,0FWq9,stimuli/fig2_rev_5d6_28px.png,,,,,,
720,70,single-stim,0,250,405046,0-0,0FWq9,<p style='font-size:60px; text-align:center; margin-top:50%'>?</p><p style='font-size:20px; text-align:center'>Press <strong>f</strong> for yes <strong>j</strong> for no.</p>,A < B,rev,5d6,28px.,rev,
-1,-1,single-stim,0,251,406546,0-0,0FWq9, ,,,,,,
403,32,text,0,252,406950,0-0,0FWq9,,,,,,,
-1,-1,single-stim,0,253,407150,0-0,0FWq9,<p style=font-size:128px; text-align:center; margin-top:50%>+</p>,,,,,,
-1,-1,single-stim,0,254,407350,0-0,0FWq9,stimuli/fig2_rev_7d8_42px.png,,,,,,
775,74,single-stim,0,255,408325,0-0,0FWq9,<p style='font-size:60px; text-align:center; margin-top:50%'>?</p><p style='font-size:20px; text-align:center'>Press <strong>f</strong> for yes <strong>j</strong> for no.</p>,A > B,rev,7d8,42px.,nor,
-1,-1,single-stim,0,256,409826,0-0,0FWq9, ,,,,,,
643,32,text,0,257,410469,0-0,0FWq9,,,,,,,
-1,-1,single-stim,0,258,410670,0-0,0FWq9,<p style=font-size:128px; text-align:center; margin-top:50%>+</p>,,,,,,
-1,-1,single-stim,0,259,410870,0-0,0FWq9,stimuli/fig2_nor_7d8_28px.png,,,,,,
791,70,single-stim,0,260,411861,0-0,0FWq9,<p style='font-size:60px; text-align:center; margin-top:50%'>?</p><p style='font-size:20px; text-align:center'>Press <strong>f</strong> for yes <strong>j</strong> for no.</p>,A > B,nor,7d8,28px.,nor,
-1,-1,single-stim,0,261,413361,0-0,0FWq9, ,,,,,,
580,32,text,0,262,413941,0-0,0FWq9,,,,,,,
-1,-1,single-stim,0,263,414142,0-0,0FWq9,<p style=font-size:128px; text-align:center; margin-top:50%>+</p>,,,,,,
-1,-1,single-stim,0,264,414342,0-0,0FWq9,stimuli/fig2_rev_3d4_42px.png,,,,,,
1142,70,single-stim,0,265,415684,0-0,0FWq9,<p style='font-size:60px; text-align:center; margin-top:50%'>?</p><p style='font-size:20px; text-align:center'>Press <strong>f</strong> for yes <strong>j</strong> for no.</p>,A < B,rev,3d4,42px.,rev,
-1,-1,single-stim,0,266,417184,0-0,0FWq9, ,,,,,,
285,32,text,0,267,417470,0-0,0FWq9,,,,,,,
-1,-1,single-stim,0,268,417670,0-0,0FWq9,<p style=font-size:128px; text-align:center; margin-top:50%>+</p>,,,,,,
-1,-1,single-stim,0,269,417870,0-0,0FWq9,stimuli/fig2_rev_1d2_42px.png,,,,,,
1215,74,single-stim,0,270,419285,0-0,0FWq9,<p style='font-size:60px; text-align:center; margin-top:50%'>?</p><p style='font-size:20px; text-align:center'>Press <strong>f</strong> for yes <strong>j</strong> for no.</p>,A > B,rev,1d2,42px.,nor,
-1,-1,single-stim,0,271,420786,0-0,0FWq9, ,,,,,,
555,32,text,0,272,421341,0-0,0FWq9,,,,,,,
-1,-1,single-stim,0,273,421542,0-0,0FWq9,<p style=font-size:128px; text-align:center; margin-top:50%>+</p>,,,,,,
-1,-1,single-stim,0,274,421742,0-0,0FWq9,stimuli/fig2_nor_1d2_28px.png,,,,,,
1505,70,single-stim,0,275,423447,0-0,0FWq9,<p style='font-size:60px; text-align:center; margin-top:50%'>?</p><p style='font-size:20px; text-align:center'>Press <strong>f</strong> for yes <strong>j</strong> for no.</p>,A > B,nor,1d2,28px.,nor,
-1,-1,single-stim,0,276,424948,0-0,0FWq9, ,,,,,,
793,32,text,0,277,425741,0-0,0FWq9,,,,,,,
-1,-1,single-stim,0,278,425941,0-0,0FWq9,<p style=font-size:128px; text-align:center; margin-top:50%>+</p>,,,,,,
-1,-1,single-stim,0,279,426141,0-0,0FWq9,stimuli/fig2_nor_7d8_28px.png,,,,,,
847,74,single-stim,0,280,427189,0-0,0FWq9,<p style='font-size:60px; text-align:center; margin-top:50%'>?</p><p style='font-size:20px; text-align:center'>Press <strong>f</strong> for yes <strong>j</strong> for no.</p>,A < B,nor,7d8,28px.,rev,
-1,-1,single-stim,0,281,428689,0-0,0FWq9, ,,,,,,
2155,32,text,0,282,430844,0-0,0FWq9,,,,,,,
-1,-1,single-stim,0,283,431045,0-0,0FWq9,<p style=font-size:128px; text-align:center; margin-top:50%>+</p>,,,,,,
-1,-1,single-stim,0,284,431245,0-0,0FWq9,stimuli/fig2_nor_5d6_42px.png,,,,,,
1344,70,single-stim,0,285,432789,0-0,0FWq9,<p style='font-size:60px; text-align:center; margin-top:50%'>?</p><p style='font-size:20px; text-align:center'>Press <strong>f</strong> for yes <strong>j</strong> for no.</p>,A > B,nor,5d6,42px.,nor,
-1,-1,single-stim,0,286,434289,0-0,0FWq9, ,,,,,,
636,32,text,0,287,434925,0-0,0FWq9,,,,,,,
-1,-1,single-stim,0,288,435125,0-0,0FWq9,<p style=font-size:128px; text-align:center; margin-top:50%>+</p>,,,,,,
-1,-1,single-stim,0,289,435325,0-0,0FWq9,stimuli/fig2_nor_9d10_28px.png,,,,,,
1311,70,single-stim,0,290,436836,0-0,0FWq9,<p style='font-size:60px; text-align:center; margin-top:50%'>?</p><p style='font-size:20px; text-align:center'>Press <strong>f</strong> for yes <strong>j</strong> for no.</p>,A > B,nor,9d10,28px,nor,
-1,-1,single-stim,0,291,438336,0-0,0FWq9, ,,,,,,
300,32,text,0,292,438636,0-0,0FWq9,,,,,,,
-1,-1,single-stim,0,293,438836,0-0,0FWq9,<p style=font-size:128px; text-align:center; margin-top:50%>+</p>,,,,,,
-1,-1,single-stim,0,294,439036,0-0,0FWq9,stimuli/fig2_rev_9d10_28px.png,,,,,,
1695,70,single-stim,0,295,440931,0-0,0FWq9,<p style='font-size:60px; text-align:center; margin-top:50%'>?</p><p style='font-size:20px; text-align:center'>Press <strong>f</strong> for yes <strong>j</strong> for no.</p>,A < B,rev,9d10,28px,rev,
-1,-1,single-stim,0,296,442432,0-0,0FWq9, ,,,,,,
555,32,text,0,297,442987,0-0,0FWq9,,,,,,,
-1,-1,single-stim,0,298,443187,0-0,0FWq9,<p style=font-size:128px; text-align:center; margin-top:50%>+</p>,,,,,,
-1,-1,single-stim,0,299,443387,0-0,0FWq9,stimuli/fig2_rev_5d6_42px.png,,,,,,
584,74,single-stim,0,300,444171,0-0,0FWq9,<p style='font-size:60px; text-align:center; margin-top:50%'>?</p><p style='font-size:20px; text-align:center'>Press <strong>f</strong> for yes <strong>j</strong> for no.</p>,A > B,rev,5d6,42px.,nor,
-1,-1,single-stim,0,301,445671,0-0,0FWq9, ,,,,,,
900,32,text,0,302,446571,0-0,0FWq9,,,,,,,
-1,-1,single-stim,0,303,446771,0-0,0FWq9,<p style=font-size:128px; text-align:center; margin-top:50%>+</p>,,,,,,
-1,-1,single-stim,0,304,446971,0-0,0FWq9,stimuli/fig2_nor_3d4_28px.png,,,,,,
1207,70,single-stim,0,305,448379,0-0,0FWq9,<p style='font-size:60px; text-align:center; margin-top:50%'>?</p><p style='font-size:20px; text-align:center'>Press <strong>f</strong> for yes <strong>j</strong> for no.</p>,A > B,nor,3d4,28px.,nor,
-1,-1,single-stim,0,306,449880,0-0,0FWq9, ,,,,,,
684,32,text,0,307,450564,0-0,0FWq9,,,,,,,
-1,-1,single-stim,0,308,450764,0-0,0FWq9,<p style=font-size:128px; text-align:center; margin-top:50%>+</p>,,,,,,
-1,-1,single-stim,0,309,450964,0-0,0FWq9,stimuli/fig2_nor_3d4_42px.png,,,,,,
911,74,single-stim,0,310,452075,0-0,0FWq9,<p style='font-size:60px; text-align:center; margin-top:50%'>?</p><p style='font-size:20px; text-align:center'>Press <strong>f</strong> for yes <strong>j</strong> for no.</p>,A < B,nor,3d4,42px.,rev,
-1,-1,single-stim,0,311,453576,0-0,0FWq9, ,,,,,,
763,32,text,0,312,454339,0-0,0FWq9,,,,,,,
-1,-1,single-stim,0,313,454539,0-0,0FWq9,<p style=font-size:128px; text-align:center; margin-top:50%>+</p>,,,,,,
-1,-1,single-stim,0,314,454739,0-0,0FWq9,stimuli/fig2_rev_7d8_28px.png,,,,,,
2760,74,single-stim,0,315,457699,0-0,0FWq9,<p style='font-size:60px; text-align:center; margin-top:50%'>?</p><p style='font-size:20px; text-align:center'>Press <strong>f</strong> for yes <strong>j</strong> for no.</p>,A > B,rev,7d8,28px.,nor,
-1,-1,single-stim,0,316,459200,0-0,0FWq9, ,,,,,,
546,32,text,0,317,459747,0-0,0FWq9,,,,,,,
-1,-1,single-stim,0,318,459947,0-0,0FWq9,<p style=font-size:128px; text-align:center; margin-top:50%>+</p>,,,,,,
-1,-1,single-stim,0,319,460147,0-0,0FWq9,stimuli/fig2_nor_5d6_42px.png,,,,,,
1407,74,single-stim,0,320,461754,0-0,0FWq9,<p style='font-size:60px; text-align:center; margin-top:50%'>?</p><p style='font-size:20px; text-align:center'>Press <strong>f</strong> for yes <strong>j</strong> for no.</p>,A < B,nor,5d6,42px.,rev,
-1,-1,single-stim,0,321,463255,0-0,0FWq9, ,,,,,,
619,32,text,0,322,463874,0-0,0FWq9,,,,,,,
-1,-1,single-stim,0,323,464075,0-0,0FWq9,<p style=font-size:128px; text-align:center; margin-top:50%>+</p>,,,,,,
-1,-1,single-stim,0,324,464275,0-0,0FWq9,stimuli/fig2_nor_9d10_42px.png,,,,,,
1399,74,single-stim,0,325,465874,0-0,0FWq9,<p style='font-size:60px; text-align:center; margin-top:50%'>?</p><p style='font-size:20px; text-align:center'>Press <strong>f</strong> for yes <strong>j</strong> for no.</p>,A > B,nor,9d10,42px,nor,
-1,-1,single-stim,0,326,467374,0-0,0FWq9, ,,,,,,
349,32,text,0,327,467723,0-0,0FWq9,,,,,,,
-1,-1,single-stim,0,328,467923,0-0,0FWq9,<p style=font-size:128px; text-align:center; margin-top:50%>+</p>,,,,,,
-1,-1,single-stim,0,329,468123,0-0,0FWq9,stimuli/fig2_nor_5d6_28px.png,,,,,,
2063,70,single-stim,0,330,470387,0-0,0FWq9,<p style='font-size:60px; text-align:center; margin-top:50%'>?</p><p style='font-size:20px; text-align:center'>Press <strong>f</strong> for yes <strong>j</strong> for no.</p>,A > B,nor,5d6,28px.,nor,
-1,-1,single-stim,0,331,471887,0-0,0FWq9, ,,,,,,
515,32,text,0,332,472403,0-0,0FWq9,,,,,,,
-1,-1,single-stim,0,333,472603,0-0,0FWq9,<p style=font-size:128px; text-align:center; margin-top:50%>+</p>,,,,,,
-1,-1,single-stim,0,334,472803,0-0,0FWq9,stimuli/fig2_rev_7d8_28px.png,,,,,,
1351,74,single-stim,0,335,474354,0-0,0FWq9,<p style='font-size:60px; text-align:center; margin-top:50%'>?</p><p style='font-size:20px; text-align:center'>Press <strong>f</strong> for yes <strong>j</strong> for no.</p>,A < B,rev,7d8,28px.,rev,
-1,-1,single-stim,0,336,475854,0-0,0FWq9, ,,,,,,
540,32,text,0,337,476394,0-0,0FWq9,,,,,,,
-1,-1,single-stim,0,338,476595,0-0,0FWq9,<p style=font-size:128px; text-align:center; margin-top:50%>+</p>,,,,,,
-1,-1,single-stim,0,339,476795,0-0,0FWq9,stimuli/fig2_nor_5d6_28px.png,,,,,,
3039,74,single-stim,0,340,480034,0-0,0FWq9,<p style='font-size:60px; text-align:center; margin-top:50%'>?</p><p style='font-size:20px; text-align:center'>Press <strong>f</strong> for yes <strong>j</strong> for no.</p>,A < B,nor,5d6,28px.,rev,
-1,-1,single-stim,0,341,481534,0-0,0FWq9, ,,,,,,
747,32,text,0,342,482282,0-0,0FWq9,,,,,,,
-1,-1,single-stim,0,343,482482,0-0,0FWq9,<p style=font-size:128px; text-align:center; margin-top:50%>+</p>,,,,,,
-1,-1,single-stim,0,344,482682,0-0,0FWq9,stimuli/fig2_rev_9d10_28px.png,,,,,,
1119,74,single-stim,0,345,484001,0-0,0FWq9,<p style='font-size:60px; text-align:center; margin-top:50%'>?</p><p style='font-size:20px; text-align:center'>Press <strong>f</strong> for yes <strong>j</strong> for no.</p>,A > B,rev,9d10,28px,nor,
-1,-1,single-stim,0,346,485503,0-0,0FWq9, ,,,,,,
563,32,text,0,347,486066,0-0,0FWq9,,,,,,,
-1,-1,single-stim,0,348,486267,0-0,0FWq9,<p style=font-size:128px; text-align:center; margin-top:50%>+</p>,,,,,,
-1,-1,single-stim,0,349,486467,0-0,0FWq9,stimuli/fig2_nor_3d4_42px.png,,,,,,
1295,70,single-stim,0,350,487962,0-0,0FWq9,<p style='font-size:60px; text-align:center; margin-top:50%'>?</p><p style='font-size:20px; text-align:center'>Press <strong>f</strong> for yes <strong>j</strong> for no.</p>,A > B,nor,3d4,42px.,nor,
-1,-1,single-stim,0,351,489462,0-0,0FWq9, ,,,,,,
364,32,text,0,352,489826,0-0,0FWq9,,,,,,,
-1,-1,single-stim,0,353,490026,0-0,0FWq9,<p style=font-size:128px; text-align:center; margin-top:50%>+</p>,,,,,,
-1,-1,single-stim,0,354,490226,0-0,0FWq9,stimuli/fig2_nor_9d10_42px.png,,,,,,
895,74,single-stim,0,355,491322,0-0,0FWq9,<p style='font-size:60px; text-align:center; margin-top:50%'>?</p><p style='font-size:20px; text-align:center'>Press <strong>f</strong> for yes <strong>j</strong> for no.</p>,A < B,nor,9d10,42px,rev,
-1,-1,single-stim,0,356,492822,0-0,0FWq9, ,,,,,,
315,32,text,0,357,493138,0-0,0FWq9,,,,,,,
-1,-1,single-stim,0,358,493338,0-0,0FWq9,<p style=font-size:128px; text-align:center; margin-top:50%>+</p>,,,,,,
-1,-1,single-stim,0,359,493538,0-0,0FWq9,stimuli/fig2_rev_3d4_28px.png,,,,,,
1127,74,single-stim,0,360,494865,0-0,0FWq9,<p style='font-size:60px; text-align:center; margin-top:50%'>?</p><p style='font-size:20px; text-align:center'>Press <strong>f</strong> for yes <strong>j</strong> for no.</p>,A > B,rev,3d4,28px.,nor,
-1,-1,single-stim,0,361,496366,0-0,0FWq9, ,,,,,,
396,32,text,0,362,496762,0-0,0FWq9,,,,,,,
-1,-1,single-stim,0,363,496962,0-0,0FWq9,<p style=font-size:128px; text-align:center; margin-top:50%>+</p>,,,,,,
-1,-1,single-stim,0,364,497162,0-0,0FWq9,stimuli/fig2_nor_1d2_42px.png,,,,,,
1576,74,single-stim,0,365,498938,0-0,0FWq9,<p style='font-size:60px; text-align:center; margin-top:50%'>?</p><p style='font-size:20px; text-align:center'>Press <strong>f</strong> for yes <strong>j</strong> for no.</p>,A < B,nor,1d2,42px.,rev,
-1,-1,single-stim,0,366,500438,0-0,0FWq9, ,,,,,,
604,32,text,0,367,501042,0-0,0FWq9,,,,,,,
-1,-1,single-stim,0,368,501242,0-0,0FWq9,<p style=font-size:128px; text-align:center; margin-top:50%>+</p>,,,,,,
-1,-1,single-stim,0,369,501442,0-0,0FWq9,stimuli/fig2_rev_9d10_42px.png,,,,,,
888,70,single-stim,0,370,502531,0-0,0FWq9,<p style='font-size:60px; text-align:center; margin-top:50%'>?</p><p style='font-size:20px; text-align:center'>Press <strong>f</strong> for yes <strong>j</strong> for no.</p>,A < B,rev,9d10,42px,rev,
-1,-1,single-stim,0,371,504031,0-0,0FWq9, ,,,,,,
299,32,text,0,372,504330,0-0,0FWq9,,,,,,,
-1,-1,single-stim,0,373,504531,0-0,0FWq9,<p style=font-size:128px; text-align:center; margin-top:50%>+</p>,,,,,,
-1,-1,single-stim,0,374,504731,0-0,0FWq9,stimuli/fig2_rev_5d6_28px.png,,,,,,
1391,74,single-stim,0,375,506322,0-0,0FWq9,<p style='font-size:60px; text-align:center; margin-top:50%'>?</p><p style='font-size:20px; text-align:center'>Press <strong>f</strong> for yes <strong>j</strong> for no.</p>,A > B,rev,5d6,28px.,nor,
-1,-1,single-stim,0,376,507823,0-0,0FWq9, ,,,,,,
363,32,text,0,377,508186,0-0,0FWq9,,,,,,,
-1,-1,single-stim,0,378,508387,0-0,0FWq9,<p style=font-size:128px; text-align:center; margin-top:50%>+</p>,,,,,,
-1,-1,single-stim,0,379,508587,0-0,0FWq9,stimuli/fig2_rev_1d2_28px.png,,,,,,
1383,70,single-stim,0,380,510186,0-0,0FWq9,<p style='font-size:60px; text-align:center; margin-top:50%'>?</p><p style='font-size:20px; text-align:center'>Press <strong>f</strong> for yes <strong>j</strong> for no.</p>,A < B,rev,1d2,28px.,rev,
-1,-1,single-stim,0,381,511686,0-0,0FWq9, ,,,,,,
724,32,text,0,382,512410,0-0,0FWq9,,,,,,,
-1,-1,single-stim,0,383,512610,0-0,0FWq9,<p style=font-size:128px; text-align:center; margin-top:50%>+</p>,,,,,,
-1,-1,single-stim,0,384,512810,0-0,0FWq9,stimuli/fig2_nor_7d8_42px.png,,,,,,
831,70,single-stim,0,385,513842,0-0,0FWq9,<p style='font-size:60px; text-align:center; margin-top:50%'>?</p><p style='font-size:20px; text-align:center'>Press <strong>f</strong> for yes <strong>j</strong> for no.</p>,A > B,nor,7d8,42px.,nor,
-1,-1,single-stim,0,386,515342,0-0,0FWq9, ,,,,,,
323,32,text,0,387,515665,0-0,0FWq9,,,,,,,
-1,-1,single-stim,0,388,515866,0-0,0FWq9,<p style=font-size:128px; text-align:center; margin-top:50%>+</p>,,,,,,
-1,-1,single-stim,0,389,516066,0-0,0FWq9,stimuli/fig2_rev_1d2_42px.png,,,,,,
2359,74,single-stim,0,390,518625,0-0,0FWq9,<p style='font-size:60px; text-align:center; margin-top:50%'>?</p><p style='font-size:20px; text-align:center'>Press <strong>f</strong> for yes <strong>j</strong> for no.</p>,A < B,rev,1d2,42px.,rev,
-1,-1,single-stim,0,391,520125,0-0,0FWq9, ,,,,,,
645,32,text,0,392,520770,0-0,0FWq9,,,,,,,
-1,-1,single-stim,0,393,520971,0-0,0FWq9,<p style=font-size:128px; text-align:center; margin-top:50%>+</p>,,,,,,
-1,-1,single-stim,0,394,521172,0-0,0FWq9,stimuli/fig2_rev_1d2_28px.png,,,,,,
1022,70,single-stim,0,395,522394,0-0,0FWq9,<p style='font-size:60px; text-align:center; margin-top:50%'>?</p><p style='font-size:20px; text-align:center'>Press <strong>f</strong> for yes <strong>j</strong> for no.</p>,A > B,rev,1d2,28px.,nor,
-1,-1,single-stim,0,396,523894,0-0,0FWq9, ,,,,,,
811,32,text,0,397,524706,0-0,0FWq9,,,,,,,
-1,-1,single-stim,0,398,524906,0-0,0FWq9,<p style=font-size:128px; text-align:center; margin-top:50%>+</p>,,,,,,
-1,-1,single-stim,0,399,525106,0-0,0FWq9,stimuli/fig2_rev_3d4_28px.png,,,,,,
1239,70,single-stim,0,400,526545,0-0,0FWq9,<p style='font-size:60px; text-align:center; margin-top:50%'>?</p><p style='font-size:20px; text-align:center'>Press <strong>f</strong> for yes <strong>j</strong> for no.</p>,A < B,rev,3d4,28px.,rev,
-1,-1,single-stim,0,401,528046,0-0,0FWq9, ,,,,,,
339,32,text,0,402,528385,0-0,0FWq9,,,,,,,
-1,-1,single-stim,0,403,528586,0-0,0FWq9,<p style=font-size:128px; text-align:center; margin-top:50%>+</p>,,,,,,
-1,-1,single-stim,0,404,528786,0-0,0FWq9,stimuli/fig2_nor_1d2_42px.png,,,,,,
2455,74,single-stim,0,405,531441,0-0,0FWq9,<p style='font-size:60px; text-align:center; margin-top:50%'>?</p><p style='font-size:20px; text-align:center'>Press <strong>f</strong> for yes <strong>j</strong> for no.</p>,B > A,nor,1d2,42px.,rev,
-1,-1,single-stim,0,406,532941,0-0,0FWq9, ,,,,,,
932,32,text,0,407,533873,0-0,0FWq9,,,,,,,
-1,-1,single-stim,0,408,534073,0-0,0FWq9,<p style=font-size:128px; text-align:center; margin-top:50%>+</p>,,,,,,
-1,-1,single-stim,0,409,534273,0-0,0FWq9,stimuli/fig2_nor_9d10_28px.png,,,,,,
944,70,single-stim,0,410,535417,0-0,0FWq9,<p style='font-size:60px; text-align:center; margin-top:50%'>?</p><p style='font-size:20px; text-align:center'>Press <strong>f</strong> for yes <strong>j</strong> for no.</p>,B < A,nor,9d10,28px,nor,
-1,-1,single-stim,0,411,536917,0-0,0FWq9, ,,,,,,
564,32,text,0,412,537481,0-0,0FWq9,,,,,,,
-1,-1,single-stim,0,413,537682,0-0,0FWq9,<p style=font-size:128px; text-align:center; margin-top:50%>+</p>,,,,,,
-1,-1,single-stim,0,414,537882,0-0,0FWq9,stimuli/fig2_nor_1d2_42px.png,,,,,,
1087,70,single-stim,0,415,539169,0-0,0FWq9,<p style='font-size:60px; text-align:center; margin-top:50%'>?</p><p style='font-size:20px; text-align:center'>Press <strong>f</strong> for yes <strong>j</strong> for no.</p>,B < A,nor,1d2,42px.,nor,
-1,-1,single-stim,0,416,540669,0-0,0FWq9, ,,,,,,
548,32,text,0,417,541217,0-0,0FWq9,,,,,,,
-1,-1,single-stim,0,418,541417,0-0,0FWq9,<p style=font-size:128px; text-align:center; margin-top:50%>+</p>,,,,,,
-1,-1,single-stim,0,419,541617,0-0,0FWq9,stimuli/fig2_nor_7d8_28px.png,,,,,,
1112,74,single-stim,0,420,542929,0-0,0FWq9,<p style='font-size:60px; text-align:center; margin-top:50%'>?</p><p style='font-size:20px; text-align:center'>Press <strong>f</strong> for yes <strong>j</strong> for no.</p>,B > A,nor,7d8,28px.,rev,
-1,-1,single-stim,0,421,544429,0-0,0FWq9, ,,,,,,
620,32,text,0,422,545049,0-0,0FWq9,,,,,,,
-1,-1,single-stim,0,423,545249,0-0,0FWq9,<p style=font-size:128px; text-align:center; margin-top:50%>+</p>,,,,,,
-1,-1,single-stim,0,424,545449,0-0,0FWq9,stimuli/fig2_nor_5d6_42px.png,,,,,,
1303,74,single-stim,0,425,546953,0-0,0FWq9,<p style='font-size:60px; text-align:center; margin-top:50%'>?</p><p style='font-size:20px; text-align:center'>Press <strong>f</strong> for yes <strong>j</strong> for no.</p>,B > A,nor,5d6,42px.,rev,
-1,-1,single-stim,0,426,548453,0-0,0FWq9, ,,,,,,
571,32,text,0,427,549024,0-0,0FWq9,,,,,,,
-1,-1,single-stim,0,428,549225,0-0,0FWq9,<p style=font-size:128px; text-align:center; margin-top:50%>+</p>,,,,,,
-1,-1,single-stim,0,429,549425,0-0,0FWq9,stimuli/fig2_rev_7d8_28px.png,,,,,,
1376,70,single-stim,0,430,551002,0-0,0FWq9,<p style='font-size:60px; text-align:center; margin-top:50%'>?</p><p style='font-size:20px; text-align:center'>Press <strong>f</strong> for yes <strong>j</strong> for no.</p>,B < A,rev,7d8,28px.,nor,
-1,-1,single-stim,0,431,552502,0-0,0FWq9, ,,,,,,
314,32,text,0,432,552816,0-0,0FWq9,,,,,,,
-1,-1,single-stim,0,433,553016,0-0,0FWq9,<p style=font-size:128px; text-align:center; margin-top:50%>+</p>,,,,,,
-1,-1,single-stim,0,434,553216,0-0,0FWq9,stimuli/fig2_nor_3d4_28px.png,,,,,,
1209,74,single-stim,0,435,554625,0-0,0FWq9,<p style='font-size:60px; text-align:center; margin-top:50%'>?</p><p style='font-size:20px; text-align:center'>Press <strong>f</strong> for yes <strong>j</strong> for no.</p>,B > A,nor,3d4,28px.,rev,
-1,-1,single-stim,0,436,556125,0-0,0FWq9, ,,,,,,
571,32,text,0,437,556697,0-0,0FWq9,,,,,,,
-1,-1,single-stim,0,438,556897,0-0,0FWq9,<p style=font-size:128px; text-align:center; margin-top:50%>+</p>,,,,,,
-1,-1,single-stim,0,439,557098,0-0,0FWq9,stimuli/fig2_rev_9d10_28px.png,,,,,,
1957,70,single-stim,0,440,559255,0-0,0FWq9,<p style='font-size:60px; text-align:center; margin-top:50%'>?</p><p style='font-size:20px; text-align:center'>Press <strong>f</strong> for yes <strong>j</strong> for no.</p>,B > A,rev,9d10,28px,rev,
-1,-1,single-stim,0,441,560756,0-0,0FWq9, ,,,,,,
523,32,text,0,442,561279,0-0,0FWq9,,,,,,,
-1,-1,single-stim,0,443,561480,0-0,0FWq9,<p style=font-size:128px; text-align:center; margin-top:50%>+</p>,,,,,,
-1,-1,single-stim,0,444,561680,0-0,0FWq9,stimuli/fig2_rev_1d2_28px.png,,,,,,
575,70,single-stim,0,445,562455,0-0,0FWq9,<p style='font-size:60px; text-align:center; margin-top:50%'>?</p><p style='font-size:20px; text-align:center'>Press <strong>f</strong> for yes <strong>j</strong> for no.</p>,B > A,rev,1d2,28px.,rev,
-1,-1,single-stim,0,446,563955,0-0,0FWq9, ,,,,,,
820,32,text,0,447,564775,0-0,0FWq9,,,,,,,
-1,-1,single-stim,0,448,564975,0-0,0FWq9,<p style=font-size:128px; text-align:center; margin-top:50%>+</p>,,,,,,
-1,-1,single-stim,0,449,565175,0-0,0FWq9,stimuli/fig2_nor_1d2_28px.png,,,,,,
768,70,single-stim,0,450,566143,0-0,0FWq9,<p style='font-size:60px; text-align:center; margin-top:50%'>?</p><p style='font-size:20px; text-align:center'>Press <strong>f</strong> for yes <strong>j</strong> for no.</p>,B < A,nor,1d2,28px.,nor,
-1,-1,single-stim,0,451,567643,0-0,0FWq9, ,,,,,,
595,32,text,0,452,568239,0-0,0FWq9,,,,,,,
-1,-1,single-stim,0,453,568439,0-0,0FWq9,<p style=font-size:128px; text-align:center; margin-top:50%>+</p>,,,,,,
-1,-1,single-stim,0,454,568639,0-0,0FWq9,stimuli/fig2_rev_1d2_42px.png,,,,,,
1383,74,single-stim,0,455,570222,0-0,0FWq9,<p style='font-size:60px; text-align:center; margin-top:50%'>?</p><p style='font-size:20px; text-align:center'>Press <strong>f</strong> for yes <strong>j</strong> for no.</p>,B < A,rev,1d2,42px.,nor,
-1,-1,single-stim,0,456,571723,0-0,0FWq9, ,,,,,,
484,32,text,0,457,572207,0-0,0FWq9,,,,,,,
-1,-1,single-stim,0,458,572407,0-0,0FWq9,<p style=font-size:128px; text-align:center; margin-top:50%>+</p>,,,,,,
-1,-1,single-stim,0,459,572607,0-0,0FWq9,stimuli/fig2_nor_9d10_28px.png,,,,,,
752,74,single-stim,0,460,573559,0-0,0FWq9,<p style='font-size:60px; text-align:center; margin-top:50%'>?</p><p style='font-size:20px; text-align:center'>Press <strong>f</strong> for yes <strong>j</strong> for no.</p>,B > A,nor,9d10,28px,rev,
-1,-1,single-stim,0,461,575059,0-0,0FWq9, ,,,,,,
524,32,text,0,462,575583,0-0,0FWq9,,,,,,,
-1,-1,single-stim,0,463,575783,0-0,0FWq9,<p style=font-size:128px; text-align:center; margin-top:50%>+</p>,,,,,,
-1,-1,single-stim,0,464,575983,0-0,0FWq9,stimuli/fig2_rev_3d4_28px.png,,,,,,
1120,74,single-stim,0,465,577303,0-0,0FWq9,<p style='font-size:60px; text-align:center; margin-top:50%'>?</p><p style='font-size:20px; text-align:center'>Press <strong>f</strong> for yes <strong>j</strong> for no.</p>,B < A,rev,3d4,28px.,nor,
-1,-1,single-stim,0,466,578803,0-0,0FWq9, ,,,,,,
259,32,text,0,467,579063,0-0,0FWq9,,,,,,,
-1,-1,single-stim,0,468,579263,0-0,0FWq9,<p style=font-size:128px; text-align:center; margin-top:50%>+</p>,,,,,,
-1,-1,single-stim,0,469,579463,0-0,0FWq9,stimuli/fig2_rev_5d6_42px.png,,,,,,
887,70,single-stim,0,470,580550,0-0,0FWq9,<p style='font-size:60px; text-align:center; margin-top:50%'>?</p><p style='font-size:20px; text-align:center'>Press <strong>f</strong> for yes <strong>j</strong> for no.</p>,B > A,rev,5d6,42px.,rev,
-1,-1,single-stim,0,471,582051,0-0,0FWq9, ,,,,,,
475,32,text,0,472,582526,0-0,0FWq9,,,,,,,
-1,-1,single-stim,0,473,582726,0-0,0FWq9,<p style=font-size:128px; text-align:center; margin-top:50%>+</p>,,,,,,
-1,-1,single-stim,0,474,582926,0-0,0FWq9,stimuli/fig2_rev_3d4_42px.png,,,,,,
3960,74,single-stim,0,475,587086,0-0,0FWq9,<p style='font-size:60px; text-align:center; margin-top:50%'>?</p><p style='font-size:20px; text-align:center'>Press <strong>f</strong> for yes <strong>j</strong> for no.</p>,B < A,rev,3d4,42px.,nor,
-1,-1,single-stim,0,476,588586,0-0,0FWq9, ,,,,,,
612,32,text,0,477,589199,0-0,0FWq9,,,,,,,
-1,-1,single-stim,0,478,589399,0-0,0FWq9,<p style=font-size:128px; text-align:center; margin-top:50%>+</p>,,,,,,
-1,-1,single-stim,0,479,589599,0-0,0FWq9,stimuli/fig2_rev_1d2_42px.png,,,,,,
615,70,single-stim,0,480,590414,0-0,0FWq9,<p style='font-size:60px; text-align:center; margin-top:50%'>?</p><p style='font-size:20px; text-align:center'>Press <strong>f</strong> for yes <strong>j</strong> for no.</p>,B > A,rev,1d2,42px.,rev,
-1,-1,single-stim,0,481,591938,0-0,0FWq9, ,,,,,,
331,32,text,0,482,592270,0-0,0FWq9,,,,,,,
-1,-1,single-stim,0,483,592471,0-0,0FWq9,<p style=font-size:128px; text-align:center; margin-top:50%>+</p>,,,,,,
-1,-1,single-stim,0,484,592671,0-0,0FWq9,stimuli/fig2_nor_1d2_28px.png,,,,,,
975,74,single-stim,0,485,593846,0-0,0FWq9,<p style='font-size:60px; text-align:center; margin-top:50%'>?</p><p style='font-size:20px; text-align:center'>Press <strong>f</strong> for yes <strong>j</strong> for no.</p>,B > A,nor,1d2,28px.,rev,
-1,-1,single-stim,0,486,595346,0-0,0FWq9, ,,,,,,
340,32,text,0,487,595686,0-0,0FWq9,,,,,,,
-1,-1,single-stim,0,488,595886,0-0,0FWq9,<p style=font-size:128px; text-align:center; margin-top:50%>+</p>,,,,,,
-1,-1,single-stim,0,489,596086,0-0,0FWq9,stimuli/fig2_rev_9d10_42px.png,,,,,,
1336,74,single-stim,0,490,597622,0-0,0FWq9,<p style='font-size:60px; text-align:center; margin-top:50%'>?</p><p style='font-size:20px; text-align:center'>Press <strong>f</strong> for yes <strong>j</strong> for no.</p>,B < A,rev,9d10,42px,nor,
-1,-1,single-stim,0,491,599124,0-0,0FWq9, ,,,,,,
937,32,text,0,492,600062,0-0,0FWq9,,,,,,,
-1,-1,single-stim,0,493,600263,0-0,0FWq9,<p style=font-size:128px; text-align:center; margin-top:50%>+</p>,,,,,,
-1,-1,single-stim,0,494,600463,0-0,0FWq9,stimuli/fig2_rev_9d10_28px.png,,,,,,
1604,74,single-stim,0,495,602334,0-0,0FWq9,<p style='font-size:60px; text-align:center; margin-top:50%'>?</p><p style='font-size:20px; text-align:center'>Press <strong>f</strong> for yes <strong>j</strong> for no.</p>,B < A,rev,9d10,28px,nor,
-1,-1,single-stim,0,496,603835,0-0,0FWq9, ,,,,,,
634,32,text,0,497,604469,0-0,0FWq9,,,,,,,
-1,-1,single-stim,0,498,604670,0-0,0FWq9,<p style=font-size:128px; text-align:center; margin-top:50%>+</p>,,,,,,
-1,-1,single-stim,0,499,604870,0-0,0FWq9,stimuli/fig2_nor_7d8_28px.png,,,,,,
863,70,single-stim,0,500,605934,0-0,0FWq9,<p style='font-size:60px; text-align:center; margin-top:50%'>?</p><p style='font-size:20px; text-align:center'>Press <strong>f</strong> for yes <strong>j</strong> for no.</p>,B < A,nor,7d8,28px.,nor,
-1,-1,single-stim,0,501,607434,0-0,0FWq9, ,,,,,,
420,32,text,0,502,607854,0-0,0FWq9,,,,,,,
-1,-1,single-stim,0,503,608055,0-0,0FWq9,<p style=font-size:128px; text-align:center; margin-top:50%>+</p>,,,,,,
-1,-1,single-stim,0,504,608255,0-0,0FWq9,stimuli/fig2_rev_3d4_42px.png,,,,,,
471,70,single-stim,0,505,608926,0-0,0FWq9,<p style='font-size:60px; text-align:center; margin-top:50%'>?</p><p style='font-size:20px; text-align:center'>Press <strong>f</strong> for yes <strong>j</strong> for no.</p>,B > A,rev,3d4,42px.,rev,
-1,-1,single-stim,0,506,610426,0-0,0FWq9, ,,,,,,
555,32,text,0,507,610982,0-0,0FWq9,,,,,,,
-1,-1,single-stim,0,508,611182,0-0,0FWq9,<p style=font-size:128px; text-align:center; margin-top:50%>+</p>,,,,,,
-1,-1,single-stim,0,509,611382,0-0,0FWq9,stimuli/fig2_nor_7d8_42px.png,,,,,,
671,74,single-stim,0,510,612253,0-0,0FWq9,<p style='font-size:60px; text-align:center; margin-top:50%'>?</p><p style='font-size:20px; text-align:center'>Press <strong>f</strong> for yes <strong>j</strong> for no.</p>,B > A,nor,7d8,42px.,rev,
-1,-1,single-stim,0,511,613754,0-0,0FWq9, ,,,,,,
491,32,text,0,512,614245,0-0,0FWq9,,,,,,,
-1,-1,single-stim,0,513,614446,0-0,0FWq9,<p style=font-size:128px; text-align:center; margin-top:50%>+</p>,,,,,,
-1,-1,single-stim,0,514,614646,0-0,0FWq9,stimuli/fig2_nor_5d6_28px.png,,,,,,
583,70,single-stim,0,515,615429,0-0,0FWq9,<p style='font-size:60px; text-align:center; margin-top:50%'>?</p><p style='font-size:20px; text-align:center'>Press <strong>f</strong> for yes <strong>j</strong> for no.</p>,B < A,nor,5d6,28px.,nor,
-1,-1,single-stim,0,516,616930,0-0,0FWq9, ,,,,,,
300,32,text,0,517,617230,0-0,0FWq9,,,,,,,
-1,-1,single-stim,0,518,617430,0-0,0FWq9,<p style=font-size:128px; text-align:center; margin-top:50%>+</p>,,,,,,
-1,-1,single-stim,0,519,617630,0-0,0FWq9,stimuli/fig2_nor_5d6_28px.png,,,,,,
664,74,single-stim,0,520,618494,0-0,0FWq9,<p style='font-size:60px; text-align:center; margin-top:50%'>?</p><p style='font-size:20px; text-align:center'>Press <strong>f</strong> for yes <strong>j</strong> for no.</p>,B > A,nor,5d6,28px.,rev,
-1,-1,single-stim,0,521,619994,0-0,0FWq9, ,,,,,,
300,32,text,0,522,620294,0-0,0FWq9,,,,,,,
-1,-1,single-stim,0,523,620494,0-0,0FWq9,<p style=font-size:128px; text-align:center; margin-top:50%>+</p>,,,,,,
-1,-1,single-stim,0,524,620694,0-0,0FWq9,stimuli/fig2_rev_7d8_42px.png,,,,,,
1151,74,single-stim,0,525,622046,0-0,0FWq9,<p style='font-size:60px; text-align:center; margin-top:50%'>?</p><p style='font-size:20px; text-align:center'>Press <strong>f</strong> for yes <strong>j</strong> for no.</p>,B < A,rev,7d8,42px.,nor,
-1,-1,single-stim,0,526,623546,0-0,0FWq9, ,,,,,,
676,32,text,0,527,624222,0-0,0FWq9,,,,,,,
-1,-1,single-stim,0,528,624423,0-0,0FWq9,<p style=font-size:128px; text-align:center; margin-top:50%>+</p>,,,,,,
-1,-1,single-stim,0,529,624623,0-0,0FWq9,stimuli/fig2_nor_5d6_42px.png,,,,,,
1327,70,single-stim,0,530,626150,0-0,0FWq9,<p style='font-size:60px; text-align:center; margin-top:50%'>?</p><p style='font-size:20px; text-align:center'>Press <strong>f</strong> for yes <strong>j</strong> for no.</p>,B < A,nor,5d6,42px.,nor,
-1,-1,single-stim,0,531,627650,0-0,0FWq9, ,,,,,,
404,32,text,0,532,628054,0-0,0FWq9,,,,,,,
-1,-1,single-stim,0,533,628254,0-0,0FWq9,<p style=font-size:128px; text-align:center; margin-top:50%>+</p>,,,,,,
-1,-1,single-stim,0,534,628454,0-0,0FWq9,stimuli/fig2_rev_5d6_28px.png,,,,,,
944,70,single-stim,0,535,629598,0-0,0FWq9,<p style='font-size:60px; text-align:center; margin-top:50%'>?</p><p style='font-size:20px; text-align:center'>Press <strong>f</strong> for yes <strong>j</strong> for no.</p>,B > A,rev,5d6,28px.,rev,
-1,-1,single-stim,0,536,631098,0-0,0FWq9, ,,,,,,
492,32,text,0,537,631590,0-0,0FWq9,,,,,,,
-1,-1,single-stim,0,538,631790,0-0,0FWq9,<p style=font-size:128px; text-align:center; margin-top:50%>+</p>,,,,,,
-1,-1,single-stim,0,539,631990,0-0,0FWq9,stimuli/fig2_nor_7d8_42px.png,,,,,,
680,74,single-stim,0,540,632870,0-0,0FWq9,<p style='font-size:60px; text-align:center; margin-top:50%'>?</p><p style='font-size:20px; text-align:center'>Press <strong>f</strong> for yes <strong>j</strong> for no.</p>,B < A,nor,7d8,42px.,nor,
-1,-1,single-stim,0,541,634370,0-0,0FWq9, ,,,,,,
339,32,text,0,542,634709,0-0,0FWq9,,,,,,,
-1,-1,single-stim,0,543,634910,0-0,0FWq9,<p style=font-size:128px; text-align:center; margin-top:50%>+</p>,,,,,,
-1,-1,single-stim,0,544,635110,0-0,0FWq9,stimuli/fig2_nor_3d4_42px.png,,,,,,
551,74,single-stim,0,545,635861,0-0,0FWq9,<p style='font-size:60px; text-align:center; margin-top:50%'>?</p><p style='font-size:20px; text-align:center'>Press <strong>f</strong> for yes <strong>j</strong> for no.</p>,B > A,nor,3d4,42px.,rev,
-1,-1,single-stim,0,546,637362,0-0,0FWq9, ,,,,,,
379,32,text,0,547,637741,0-0,0FWq9,,,,,,,
-1,-1,single-stim,0,548,637941,0-0,0FWq9,<p style=font-size:128px; text-align:center; margin-top:50%>+</p>,,,,,,
-1,-1,single-stim,0,549,638141,0-0,0FWq9,stimuli/fig2_nor_3d4_28px.png,,,,,,
632,70,single-stim,0,550,638973,0-0,0FWq9,<p style='font-size:60px; text-align:center; margin-top:50%'>?</p><p style='font-size:20px; text-align:center'>Press <strong>f</strong> for yes <strong>j</strong> for no.</p>,B < A,nor,3d4,28px.,nor,
-1,-1,single-stim,0,551,640492,0-0,0FWq9, ,,,,,,
297,32,text,0,552,640789,0-0,0FWq9,,,,,,,
-1,-1,single-stim,0,553,640989,0-0,0FWq9,<p style=font-size:128px; text-align:center; margin-top:50%>+</p>,,,,,,
-1,-1,single-stim,0,554,641189,0-0,0FWq9,stimuli/fig2_rev_7d8_42px.png,,,,,,
833,70,single-stim,0,555,642222,0-0,0FWq9,<p style='font-size:60px; text-align:center; margin-top:50%'>?</p><p style='font-size:20px; text-align:center'>Press <strong>f</strong> for yes <strong>j</strong> for no.</p>,B > A,rev,7d8,42px.,rev,
-1,-1,single-stim,0,556,643722,0-0,0FWq9, ,,,,,,
324,32,text,0,557,644046,0-0,0FWq9,,,,,,,
-1,-1,single-stim,0,558,644246,0-0,0FWq9,<p style=font-size:128px; text-align:center; margin-top:50%>+</p>,,,,,,
-1,-1,single-stim,0,559,644446,0-0,0FWq9,stimuli/fig2_nor_9d10_42px.png,,,,,,
903,74,single-stim,0,560,645549,0-0,0FWq9,<p style='font-size:60px; text-align:center; margin-top:50%'>?</p><p style='font-size:20px; text-align:center'>Press <strong>f</strong> for yes <strong>j</strong> for no.</p>,B < A,nor,9d10,42px,nor,
-1,-1,single-stim,0,561,647050,0-0,0FWq9, ,,,,,,
387,32,text,0,562,647437,0-0,0FWq9,,,,,,,
-1,-1,single-stim,0,563,647637,0-0,0FWq9,<p style=font-size:128px; text-align:center; margin-top:50%>+</p>,,,,,,
-1,-1,single-stim,0,564,647837,0-0,0FWq9,stimuli/fig2_rev_5d6_28px.png,,,,,,
904,74,single-stim,0,565,648941,0-0,0FWq9,<p style='font-size:60px; text-align:center; margin-top:50%'>?</p><p style='font-size:20px; text-align:center'>Press <strong>f</strong> for yes <strong>j</strong> for no.</p>,B < A,rev,5d6,28px.,nor,
-1,-1,single-stim,0,566,650441,0-0,0FWq9, ,,,,,,
404,32,text,0,567,650845,0-0,0FWq9,,,,,,,
-1,-1,single-stim,0,568,651045,0-0,0FWq9,<p style=font-size:128px; text-align:center; margin-top:50%>+</p>,,,,,,
-1,-1,single-stim,0,569,651245,0-0,0FWq9,stimuli/fig2_nor_9d10_42px.png,,,,,,
816,74,single-stim,0,570,652261,0-0,0FWq9,<p style='font-size:60px; text-align:center; margin-top:50%'>?</p><p style='font-size:20px; text-align:center'>Press <strong>f</strong> for yes <strong>j</strong> for no.</p>,B > A,nor,9d10,42px,rev,
-1,-1,single-stim,0,571,653761,0-0,0FWq9, ,,,,,,
419,32,text,0,572,654181,0-0,0FWq9,,,,,,,
-1,-1,single-stim,0,573,654381,0-0,0FWq9,<p style=font-size:128px; text-align:center; margin-top:50%>+</p>,,,,,,
-1,-1,single-stim,0,574,654581,0-0,0FWq9,stimuli/fig2_rev_5d6_42px.png,,,,,,
975,70,single-stim,0,575,655756,0-0,0FWq9,<p style='font-size:60px; text-align:center; margin-top:50%'>?</p><p style='font-size:20px; text-align:center'>Press <strong>f</strong> for yes <strong>j</strong> for no.</p>,B < A,rev,5d6,42px.,nor,
-1,-1,single-stim,0,576,657257,0-0,0FWq9, ,,,,,,
627,32,text,0,577,657884,0-0,0FWq9,,,,,,,
-1,-1,single-stim,0,578,658085,0-0,0FWq9,<p style=font-size:128px; text-align:center; margin-top:50%>+</p>,,,,,,
-1,-1,single-stim,0,579,658285,0-0,0FWq9,stimuli/fig2_rev_1d2_28px.png,,,,,,
576,74,single-stim,0,580,659061,0-0,0FWq9,<p style='font-size:60px; text-align:center; margin-top:50%'>?</p><p style='font-size:20px; text-align:center'>Press <strong>f</strong> for yes <strong>j</strong> for no.</p>,B < A,rev,1d2,28px.,nor,
-1,-1,single-stim,0,581,660561,0-0,0FWq9, ,,,,,,
300,32,text,0,582,660861,0-0,0FWq9,,,,,,,
-1,-1,single-stim,0,583,661061,0-0,0FWq9,<p style=font-size:128px; text-align:center; margin-top:50%>+</p>,,,,,,
-1,-1,single-stim,0,584,661261,0-0,0FWq9,stimuli/fig2_nor_3d4_42px.png,,,,,,
736,70,single-stim,0,585,662197,0-0,0FWq9,<p style='font-size:60px; text-align:center; margin-top:50%'>?</p><p style='font-size:20px; text-align:center'>Press <strong>f</strong> for yes <strong>j</strong> for no.</p>,B < A,nor,3d4,42px.,nor,
-1,-1,single-stim,0,586,663697,0-0,0FWq9, ,,,,,,
380,32,text,0,587,664077,0-0,0FWq9,,,,,,,
-1,-1,single-stim,0,588,664277,0-0,0FWq9,<p style=font-size:128px; text-align:center; margin-top:50%>+</p>,,,,,,
-1,-1,single-stim,0,589,664477,0-0,0FWq9,stimuli/fig2_rev_3d4_28px.png,,,,,,
967,70,single-stim,0,590,665645,0-0,0FWq9,<p style='font-size:60px; text-align:center; margin-top:50%'>?</p><p style='font-size:20px; text-align:center'>Press <strong>f</strong> for yes <strong>j</strong> for no.</p>,B > A,rev,3d4,28px.,rev,
-1,-1,single-stim,0,591,667145,0-0,0FWq9, ,,,,,,
467,32,text,0,592,667612,0-0,0FWq9,,,,,,,
-1,-1,single-stim,0,593,667813,0-0,0FWq9,<p style=font-size:128px; text-align:center; margin-top:50%>+</p>,,,,,,
-1,-1,single-stim,0,594,668013,0-0,0FWq9,stimuli/fig2_rev_7d8_28px.png,,,,,,
1295,70,single-stim,0,595,669508,0-0,0FWq9,<p style='font-size:60px; text-align:center; margin-top:50%'>?</p><p style='font-size:20px; text-align:center'>Press <strong>f</strong> for yes <strong>j</strong> for no.</p>,B > A,rev,7d8,28px.,rev,
-1,-1,single-stim,0,596,671008,0-0,0FWq9, ,,,,,,
428,32,text,0,597,671436,0-0,0FWq9,,,,,,,
-1,-1,single-stim,0,598,671637,0-0,0FWq9,<p style=font-size:128px; text-align:center; margin-top:50%>+</p>,,,,,,
-1,-1,single-stim,0,599,671837,0-0,0FWq9,stimuli/fig2_rev_9d10_42px.png,,,,,,
831,70,single-stim,0,600,672868,0-0,0FWq9,<p style='font-size:60px; text-align:center; margin-top:50%'>?</p><p style='font-size:20px; text-align:center'>Press <strong>f</strong> for yes <strong>j</strong> for no.</p>,B > A,rev,9d10,42px,rev,
-1,-1,single-stim,0,601,674368,0-0,0FWq9, ,,,,,,
2100,32,text,0,602,676469,0-0,0FWq9,,,,,,,
-1,-1,single-stim,0,603,676669,0-0,0FWq9,<p style=font-size:128px; text-align:center; margin-top:50%>+</p>,,,,,,
-1,-1,single-stim,0,604,676869,0-0,0FWq9,stimuli/fig2_rev_1d2_42px.png,,,,,,
1239,74,single-stim,0,605,678308,0-0,0FWq9,<p style='font-size:60px; text-align:center; margin-top:50%'>?</p><p style='font-size:20px; text-align:center'>Press <strong>f</strong> for yes <strong>j</strong> for no.</p>,A is taller than B.,rev,1d2,42px.,nor,
-1,-1,single-stim,0,606,679808,0-0,0FWq9, ,,,,,,
646,32,text,0,607,680454,0-0,0FWq9,,,,,,,
-1,-1,single-stim,0,608,680654,0-0,0FWq9,<p style=font-size:128px; text-align:center; margin-top:50%>+</p>,,,,,,
-1,-1,single-stim,0,609,680854,0-0,0FWq9,stimuli/fig2_rev_9d10_28px.png,,,,,,
805,74,single-stim,0,610,681859,0-0,0FWq9,<p style='font-size:60px; text-align:center; margin-top:50%'>?</p><p style='font-size:20px; text-align:center'>Press <strong>f</strong> for yes <strong>j</strong> for no.</p>,A is taller than B.,rev,9d10,28px,nor,
-1,-1,single-stim,0,611,683359,0-0,0FWq9, ,,,,,,
476,32,text,0,612,683835,0-0,0FWq9,,,,,,,
-1,-1,single-stim,0,613,684035,0-0,0FWq9,<p style=font-size:128px; text-align:center; margin-top:50%>+</p>,,,,,,
-1,-1,single-stim,0,614,684235,0-0,0FWq9,stimuli/fig2_nor_7d8_28px.png,,,,,,
952,74,single-stim,0,615,685387,0-0,0FWq9,<p style='font-size:60px; text-align:center; margin-top:50%'>?</p><p style='font-size:20px; text-align:center'>Press <strong>f</strong> for yes <strong>j</strong> for no.</p>,A is shorter than B.,nor,7d8,28px.,rev,
-1,-1,single-stim,0,616,686887,0-0,0FWq9, ,,,,,,
563,32,text,0,617,687451,0-0,0FWq9,,,,,,,
-1,-1,single-stim,0,618,687651,0-0,0FWq9,<p style=font-size:128px; text-align:center; margin-top:50%>+</p>,,,,,,
-1,-1,single-stim,0,619,687851,0-0,0FWq9,stimuli/fig2_nor_7d8_42px.png,,,,,,
1055,74,single-stim,0,620,689106,0-0,0FWq9,<p style='font-size:60px; text-align:center; margin-top:50%'>?</p><p style='font-size:20px; text-align:center'>Press <strong>f</strong> for yes <strong>j</strong> for no.</p>,A is shorter than B.,nor,7d8,42px.,rev,
-1,-1,single-stim,0,621,690607,0-0,0FWq9, ,,,,,,
435,32,text,0,622,691042,0-0,0FWq9,,,,,,,
-1,-1,single-stim,0,623,691242,0-0,0FWq9,<p style=font-size:128px; text-align:center; margin-top:50%>+</p>,,,,,,
-1,-1,single-stim,0,624,691442,0-0,0FWq9,stimuli/fig2_nor_1d2_42px.png,,,,,,
3689,74,single-stim,0,625,695331,0-0,0FWq9,<p style='font-size:60px; text-align:center; margin-top:50%'>?</p><p style='font-size:20px; text-align:center'>Press <strong>f</strong> for yes <strong>j</strong> for no.</p>,A is taller than B.,nor,1d2,42px.,nor,
-1,-1,single-stim,0,626,696831,0-0,0FWq9, ,,,,,,
979,32,text,0,627,697811,0-0,0FWq9,,,,,,,
-1,-1,single-stim,0,628,698011,0-0,0FWq9,<p style=font-size:128px; text-align:center; margin-top:50%>+</p>,,,,,,
-1,-1,single-stim,0,629,698211,0-0,0FWq9,stimuli/fig2_rev_3d4_28px.png,,,,,,
639,70,single-stim,0,630,699050,0-0,0FWq9,<p style='font-size:60px; text-align:center; margin-top:50%'>?</p><p style='font-size:20px; text-align:center'>Press <strong>f</strong> for yes <strong>j</strong> for no.</p>,A is shorter than B.,rev,3d4,28px.,rev,
-1,-1,single-stim,0,631,700551,0-0,0FWq9, ,,,,,,
659,32,text,0,632,701210,0-0,0FWq9,,,,,,,
-1,-1,single-stim,0,633,701410,0-0,0FWq9,<p style=font-size:128px; text-align:center; margin-top:50%>+</p>,,,,,,
-1,-1,single-stim,0,634,701610,0-0,0FWq9,stimuli/fig2_nor_3d4_28px.png,,,,,,
608,70,single-stim,0,635,702418,0-0,0FWq9,<p style='font-size:60px; text-align:center; margin-top:50%'>?</p><p style='font-size:20px; text-align:center'>Press <strong>f</strong> for yes <strong>j</strong> for no.</p>,A is taller than B.,nor,3d4,28px.,nor,
-1,-1,single-stim,0,636,703919,0-0,0FWq9, ,,,,,,
627,32,text,0,637,704546,0-0,0FWq9,,,,,,,
-1,-1,single-stim,0,638,704746,0-0,0FWq9,<p style=font-size:128px; text-align:center; margin-top:50%>+</p>,,,,,,
-1,-1,single-stim,0,639,704946,0-0,0FWq9,stimuli/fig2_rev_1d2_42px.png,,,,,,
704,70,single-stim,0,640,705850,0-0,0FWq9,<p style='font-size:60px; text-align:center; margin-top:50%'>?</p><p style='font-size:20px; text-align:center'>Press <strong>f</strong> for yes <strong>j</strong> for no.</p>,A is shorter than B.,rev,1d2,42px.,rev,
-1,-1,single-stim,0,641,707350,0-0,0FWq9, ,,,,,,
499,32,text,0,642,707850,0-0,0FWq9,,,,,,,
-1,-1,single-stim,0,643,708050,0-0,0FWq9,<p style=font-size:128px; text-align:center; margin-top:50%>+</p>,,,,,,
-1,-1,single-stim,0,644,708250,0-0,0FWq9,stimuli/fig2_nor_9d10_28px.png,,,,,,
471,70,single-stim,0,645,708921,0-0,0FWq9,<p style='font-size:60px; text-align:center; margin-top:50%'>?</p><p style='font-size:20px; text-align:center'>Press <strong>f</strong> for yes <strong>j</strong> for no.</p>,A is taller than B.,nor,9d10,28px,nor,
-1,-1,single-stim,0,646,710422,0-0,0FWq9, ,,,,,,
747,32,text,0,647,711169,0-0,0FWq9,,,,,,,
-1,-1,single-stim,0,648,711370,0-0,0FWq9,<p style=font-size:128px; text-align:center; margin-top:50%>+</p>,,,,,,
-1,-1,single-stim,0,649,711570,0-0,0FWq9,stimuli/fig2_rev_7d8_42px.png,,,,,,
800,74,single-stim,0,650,712570,0-0,0FWq9,<p style='font-size:60px; text-align:center; margin-top:50%'>?</p><p style='font-size:20px; text-align:center'>Press <strong>f</strong> for yes <strong>j</strong> for no.</p>,A is taller than B.,rev,7d8,42px.,nor,
-1,-1,single-stim,0,651,714070,0-0,0FWq9, ,,,,,,
1860,32,text,0,652,715930,0-0,0FWq9,,,,,,,
-1,-1,single-stim,0,653,716130,0-0,0FWq9,<p style=font-size:128px; text-align:center; margin-top:50%>+</p>,,,,,,
-1,-1,single-stim,0,654,716330,0-0,0FWq9,stimuli/fig2_rev_3d4_42px.png,,,,,,
552,74,single-stim,0,655,717082,0-0,0FWq9,<p style='font-size:60px; text-align:center; margin-top:50%'>?</p><p style='font-size:20px; text-align:center'>Press <strong>f</strong> for yes <strong>j</strong> for no.</p>,A is taller than B.,rev,3d4,42px.,nor,
-1,-1,single-stim,0,656,718582,0-0,0FWq9, ,,,,,,
483,32,text,0,657,719066,0-0,0FWq9,,,,,,,
-1,-1,single-stim,0,658,719266,0-0,0FWq9,<p style=font-size:128px; text-align:center; margin-top:50%>+</p>,,,,,,
-1,-1,single-stim,0,659,719466,0-0,0FWq9,stimuli/fig2_rev_5d6_28px.png,,,,,,
527,70,single-stim,0,660,720193,0-0,0FWq9,<p style='font-size:60px; text-align:center; margin-top:50%'>?</p><p style='font-size:20px; text-align:center'>Press <strong>f</strong> for yes <strong>j</strong> for no.</p>,A is shorter than B.,rev,5d6,28px.,rev,
-1,-1,single-stim,0,661,721694,0-0,0FWq9, ,,,,,,
371,32,text,0,662,722065,0-0,0FWq9,,,,,,,
-1,-1,single-stim,0,663,722265,0-0,0FWq9,<p style=font-size:128px; text-align:center; margin-top:50%>+</p>,,,,,,
-1,-1,single-stim,0,664,722465,0-0,0FWq9,stimuli/fig2_nor_5d6_28px.png,,,,,,
504,70,single-stim,0,665,723169,0-0,0FWq9,<p style='font-size:60px; text-align:center; margin-top:50%'>?</p><p style='font-size:20px; text-align:center'>Press <strong>f</strong> for yes <strong>j</strong> for no.</p>,A is taller than B.,nor,5d6,28px.,nor,
-1,-1,single-stim,0,666,724669,0-0,0FWq9, ,,,,,,
524,32,text,0,667,725193,0-0,0FWq9,,,,,,,
-1,-1,single-stim,0,668,725394,0-0,0FWq9,<p style=font-size:128px; text-align:center; margin-top:50%>+</p>,,,,,,
-1,-1,single-stim,0,669,725594,0-0,0FWq9,stimuli/fig2_rev_7d8_28px.png,,,,,,
759,74,single-stim,0,670,726553,0-0,0FWq9,<p style='font-size:60px; text-align:center; margin-top:50%'>?</p><p style='font-size:20px; text-align:center'>Press <strong>f</strong> for yes <strong>j</strong> for no.</p>,A is taller than B.,rev,7d8,28px.,nor,
-1,-1,single-stim,0,671,728053,0-0,0FWq9, ,,,,,,
356,32,text,0,672,728409,0-0,0FWq9,,,,,,,
-1,-1,single-stim,0,673,728609,0-0,0FWq9,<p style=font-size:128px; text-align:center; margin-top:50%>+</p>,,,,,,
-1,-1,single-stim,0,674,728809,0-0,0FWq9,stimuli/fig2_nor_9d10_42px.png,,,,,,
1184,70,single-stim,0,675,730194,0-0,0FWq9,<p style='font-size:60px; text-align:center; margin-top:50%'>?</p><p style='font-size:20px; text-align:center'>Press <strong>f</strong> for yes <strong>j</strong> for no.</p>,A is taller than B.,nor,9d10,42px,nor,
-1,-1,single-stim,0,676,731694,0-0,0FWq9, ,,,,,,
299,32,text,0,677,731993,0-0,0FWq9,,,,,,,
-1,-1,single-stim,0,678,732194,0-0,0FWq9,<p style=font-size:128px; text-align:center; margin-top:50%>+</p>,,,,,,
-1,-1,single-stim,0,679,732394,0-0,0FWq9,stimuli/fig2_nor_3d4_42px.png,,,,,,
503,70,single-stim,0,680,733097,0-0,0FWq9,<p style='font-size:60px; text-align:center; margin-top:50%'>?</p><p style='font-size:20px; text-align:center'>Press <strong>f</strong> for yes <strong>j</strong> for no.</p>,A is taller than B.,nor,3d4,42px.,nor,
-1,-1,single-stim,0,681,734611,0-0,0FWq9, ,,,,,,
294,32,text,0,682,734905,0-0,0FWq9,,,,,,,
-1,-1,single-stim,0,683,735106,0-0,0FWq9,<p style=font-size:128px; text-align:center; margin-top:50%>+</p>,,,,,,
-1,-1,single-stim,0,684,735306,0-0,0FWq9,stimuli/fig2_nor_1d2_28px.png,,,,,,
271,74,single-stim,0,685,735777,0-0,0FWq9,<p style='font-size:60px; text-align:center; margin-top:50%'>?</p><p style='font-size:20px; text-align:center'>Press <strong>f</strong> for yes <strong>j</strong> for no.</p>,A is taller than B.,nor,1d2,28px.,nor,
-1,-1,single-stim,0,686,737278,0-0,0FWq9, ,,,,,,
876,32,text,0,687,738154,0-0,0FWq9,,,,,,,
-1,-1,single-stim,0,688,738354,0-0,0FWq9,<p style=font-size:128px; text-align:center; margin-top:50%>+</p>,,,,,,
-1,-1,single-stim,0,689,738554,0-0,0FWq9,stimuli/fig2_nor_1d2_42px.png,,,,,,
536,74,single-stim,0,690,739290,0-0,0FWq9,<p style='font-size:60px; text-align:center; margin-top:50%'>?</p><p style='font-size:20px; text-align:center'>Press <strong>f</strong> for yes <strong>j</strong> for no.</p>,A is shorter than B.,nor,1d2,42px.,rev,
-1,-1,single-stim,0,691,740790,0-0,0FWq9, ,,,,,,
323,32,text,0,692,741114,0-0,0FWq9,,,,,,,
-1,-1,single-stim,0,693,741314,0-0,0FWq9,<p style=font-size:128px; text-align:center; margin-top:50%>+</p>,,,,,,
-1,-1,single-stim,0,694,741514,0-0,0FWq9,stimuli/fig2_nor_9d10_28px.png,,,,,,
503,74,single-stim,0,695,742217,0-0,0FWq9,<p style='font-size:60px; text-align:center; margin-top:50%'>?</p><p style='font-size:20px; text-align:center'>Press <strong>f</strong> for yes <strong>j</strong> for no.</p>,A is shorter than B.,nor,9d10,28px,rev,
-1,-1,single-stim,0,696,743718,0-0,0FWq9, ,,,,,,
291,32,text,0,697,744009,0-0,0FWq9,,,,,,,
-1,-1,single-stim,0,698,744210,0-0,0FWq9,<p style=font-size:128px; text-align:center; margin-top:50%>+</p>,,,,,,
-1,-1,single-stim,0,699,744415,0-0,0FWq9,stimuli/fig2_rev_9d10_42px.png,,,,,,
553,70,single-stim,0,700,745169,0-0,0FWq9,<p style='font-size:60px; text-align:center; margin-top:50%'>?</p><p style='font-size:20px; text-align:center'>Press <strong>f</strong> for yes <strong>j</strong> for no.</p>,A is shorter than B.,rev,9d10,42px,rev,
-1,-1,single-stim,0,701,746669,0-0,0FWq9, ,,,,,,
341,32,text,0,702,747010,0-0,0FWq9,,,,,,,
-1,-1,single-stim,0,703,747210,0-0,0FWq9,<p style=font-size:128px; text-align:center; margin-top:50%>+</p>,,,,,,
-1,-1,single-stim,0,704,747410,0-0,0FWq9,stimuli/fig2_nor_5d6_42px.png,,,,,,
368,70,single-stim,0,705,747978,0-0,0FWq9,<p style='font-size:60px; text-align:center; margin-top:50%'>?</p><p style='font-size:20px; text-align:center'>Press <strong>f</strong> for yes <strong>j</strong> for no.</p>,A is taller than B.,nor,5d6,42px.,nor,
-1,-1,single-stim,0,706,749478,0-0,0FWq9, ,,,,,,
492,32,text,0,707,749970,0-0,0FWq9,,,,,,,
-1,-1,single-stim,0,708,750170,0-0,0FWq9,<p style=font-size:128px; text-align:center; margin-top:50%>+</p>,,,,,,
-1,-1,single-stim,0,709,750370,0-0,0FWq9,stimuli/fig2_rev_1d2_28px.png,,,,,,
455,70,single-stim,0,710,751026,0-0,0FWq9,<p style='font-size:60px; text-align:center; margin-top:50%'>?</p><p style='font-size:20px; text-align:center'>Press <strong>f</strong> for yes <strong>j</strong> for no.</p>,A is shorter than B.,rev,1d2,28px.,rev,
-1,-1,single-stim,0,711,752526,0-0,0FWq9, ,,,,,,
347,32,text,0,712,752873,0-0,0FWq9,,,,,,,
-1,-1,single-stim,0,713,753074,0-0,0FWq9,<p style=font-size:128px; text-align:center; margin-top:50%>+</p>,,,,,,
-1,-1,single-stim,0,714,753274,0-0,0FWq9,stimuli/fig2_rev_9d10_28px.png,,,,,,
871,70,single-stim,0,715,754345,0-0,0FWq9,<p style='font-size:60px; text-align:center; margin-top:50%'>?</p><p style='font-size:20px; text-align:center'>Press <strong>f</strong> for yes <strong>j</strong> for no.</p>,A is shorter than B.,rev,9d10,28px,rev,
-1,-1,single-stim,0,716,755846,0-0,0FWq9, ,,,,,,
12,32,text,0,717,755858,0-0,0FWq9,,,,,,,
-1,-1,single-stim,0,718,756059,0-0,0FWq9,<p style=font-size:128px; text-align:center; margin-top:50%>+</p>,,,,,,
-1,-1,single-stim,0,719,756259,0-0,0FWq9,stimuli/fig2_rev_9d10_42px.png,,,,,,
486,70,single-stim,0,720,756945,0-0,0FWq9,<p style='font-size:60px; text-align:center; margin-top:50%'>?</p><p style='font-size:20px; text-align:center'>Press <strong>f</strong> for yes <strong>j</strong> for no.</p>,A is taller than B.,rev,9d10,42px,nor,
-1,-1,single-stim,0,721,758445,0-0,0FWq9, ,,,,,,
1236,32,text,0,722,759681,0-0,0FWq9,,,,,,,
-1,-1,single-stim,0,723,759881,0-0,0FWq9,<p style=font-size:128px; text-align:center; margin-top:50%>+</p>,,,,,,
-1,-1,single-stim,0,724,760082,0-0,0FWq9,stimuli/fig2_nor_5d6_42px.png,,,,,,
1030,74,single-stim,0,725,761313,0-0,0FWq9,<p style='font-size:60px; text-align:center; margin-top:50%'>?</p><p style='font-size:20px; text-align:center'>Press <strong>f</strong> for yes <strong>j</strong> for no.</p>,A is shorter than B.,nor,5d6,42px.,rev,
-1,-1,single-stim,0,726,762813,0-0,0FWq9, ,,,,,,
348,32,text,0,727,763161,0-0,0FWq9,,,,,,,
-1,-1,single-stim,0,728,763361,0-0,0FWq9,<p style=font-size:128px; text-align:center; margin-top:50%>+</p>,,,,,,
-1,-1,single-stim,0,729,763561,0-0,0FWq9,stimuli/fig2_nor_3d4_42px.png,,,,,,
1464,74,single-stim,0,730,765225,0-0,0FWq9,<p style='font-size:60px; text-align:center; margin-top:50%'>?</p><p style='font-size:20px; text-align:center'>Press <strong>f</strong> for yes <strong>j</strong> for no.</p>,A is shorter than B.,nor,3d4,42px.,rev,
-1,-1,single-stim,0,731,766725,0-0,0FWq9, ,,,,,,
2892,32,text,0,732,769617,0-0,0FWq9,,,,,,,
-1,-1,single-stim,0,733,769818,0-0,0FWq9,<p style=font-size:128px; text-align:center; margin-top:50%>+</p>,,,,,,
-1,-1,single-stim,0,734,770018,0-0,0FWq9,stimuli/fig2_nor_9d10_42px.png,,,,,,
-1,-1,single-stim,0,735,775218,0-0,0FWq9,<p style='font-size:60px; text-align:center; margin-top:50%'>?</p><p style='font-size:20px; text-align:center'>Press <strong>f</strong> for yes <strong>j</strong> for no.</p>,A is shorter than B.,nor,9d10,42px,rev,
-1,-1,single-stim,0,736,776718,0-0,0FWq9, ,,,,,,
2730,32,text,0,737,779448,0-0,0FWq9,,,,,,,
-1,-1,single-stim,0,738,779648,0-0,0FWq9,<p style=font-size:128px; text-align:center; margin-top:50%>+</p>,,,,,,
-1,-1,single-stim,0,739,779848,0-0,0FWq9,stimuli/fig2_rev_5d6_28px.png,,,,,,
2545,74,single-stim,0,740,782593,0-0,0FWq9,<p style='font-size:60px; text-align:center; margin-top:50%'>?</p><p style='font-size:20px; text-align:center'>Press <strong>f</strong> for yes <strong>j</strong> for no.</p>,A is taller than B.,rev,5d6,28px.,nor,
-1,-1,single-stim,0,741,784093,0-0,0FWq9, ,,,,,,
2475,32,text,0,742,786568,0-0,0FWq9,,,,,,,
-1,-1,single-stim,0,743,786769,0-0,0FWq9,<p style=font-size:128px; text-align:center; margin-top:50%>+</p>,,,,,,
-1,-1,single-stim,0,744,786969,0-0,0FWq9,stimuli/fig2_nor_5d6_28px.png,,,,,,
975,70,single-stim,0,745,788144,0-0,0FWq9,<p style='font-size:60px; text-align:center; margin-top:50%'>?</p><p style='font-size:20px; text-align:center'>Press <strong>f</strong> for yes <strong>j</strong> for no.</p>,A is shorter than B.,nor,5d6,28px.,rev,
-1,-1,single-stim,0,746,789644,0-0,0FWq9, ,,,,,,
428,32,text,0,747,790072,0-0,0FWq9,,,,,,,
-1,-1,single-stim,0,748,790272,0-0,0FWq9,<p style=font-size:128px; text-align:center; margin-top:50%>+</p>,,,,,,
-1,-1,single-stim,0,749,790472,0-0,0FWq9,stimuli/fig2_rev_5d6_42px.png,,,,,,
1576,74,single-stim,0,750,792248,0-0,0FWq9,<p style='font-size:60px; text-align:center; margin-top:50%'>?</p><p style='font-size:20px; text-align:center'>Press <strong>f</strong> for yes <strong>j</strong> for no.</p>,A is taller than B.,rev,5d6,42px.,nor,
-1,-1,single-stim,0,751,793748,0-0,0FWq9, ,,,,,,
659,32,text,0,752,794408,0-0,0FWq9,,,,,,,
-1,-1,single-stim,0,753,794608,0-0,0FWq9,<p style=font-size:128px; text-align:center; margin-top:50%>+</p>,,,,,,
-1,-1,single-stim,0,754,794808,0-0,0FWq9,stimuli/fig2_nor_7d8_42px.png,,,,,,
2383,70,single-stim,0,755,797391,0-0,0FWq9,<p style='font-size:60px; text-align:center; margin-top:50%'>?</p><p style='font-size:20px; text-align:center'>Press <strong>f</strong> for yes <strong>j</strong> for no.</p>,A is taller than B.,nor,7d8,42px.,nor,
-1,-1,single-stim,0,756,798892,0-0,0FWq9, ,,,,,,
664,32,text,0,757,799556,0-0,0FWq9,,,,,,,
-1,-1,single-stim,0,758,799756,0-0,0FWq9,<p style=font-size:128px; text-align:center; margin-top:50%>+</p>,,,,,,
-1,-1,single-stim,0,759,799956,0-0,0FWq9,stimuli/fig2_rev_3d4_42px.png,,,,,,
1548,70,single-stim,0,760,801704,0-0,0FWq9,<p style='font-size:60px; text-align:center; margin-top:50%'>?</p><p style='font-size:20px; text-align:center'>Press <strong>f</strong> for yes <strong>j</strong> for no.</p>,A is shorter than B.,rev,3d4,42px.,rev,
-1,-1,single-stim,0,761,803204,0-0,0FWq9, ,,,,,,
516,32,text,0,762,803720,0-0,0FWq9,,,,,,,
-1,-1,single-stim,0,763,803920,0-0,0FWq9,<p style=font-size:128px; text-align:center; margin-top:50%>+</p>,,,,,,
-1,-1,single-stim,0,764,804120,0-0,0FWq9,stimuli/fig2_rev_7d8_28px.png,,,,,,
807,70,single-stim,0,765,805128,0-0,0FWq9,<p style='font-size:60px; text-align:center; margin-top:50%'>?</p><p style='font-size:20px; text-align:center'>Press <strong>f</strong> for yes <strong>j</strong> for no.</p>,A is shorter than B.,rev,7d8,28px.,rev,
-1,-1,single-stim,0,766,806628,0-0,0FWq9, ,,,,,,
667,32,text,0,767,807295,0-0,0FWq9,,,,,,,
-1,-1,single-stim,0,768,807496,0-0,0FWq9,<p style=font-size:128px; text-align:center; margin-top:50%>+</p>,,,,,,
-1,-1,single-stim,0,769,807696,0-0,0FWq9,stimuli/fig2_rev_5d6_42px.png,,,,,,
1447,70,single-stim,0,770,809343,0-0,0FWq9,<p style='font-size:60px; text-align:center; margin-top:50%'>?</p><p style='font-size:20px; text-align:center'>Press <strong>f</strong> for yes <strong>j</strong> for no.</p>,A is shorter than B.,rev,5d6,42px.,rev,
-1,-1,single-stim,0,771,810843,0-0,0FWq9, ,,,,,,
444,32,text,0,772,811287,0-0,0FWq9,,,,,,,
-1,-1,single-stim,0,773,811487,0-0,0FWq9,<p style=font-size:128px; text-align:center; margin-top:50%>+</p>,,,,,,
-1,-1,single-stim,0,774,811687,0-0,0FWq9,stimuli/fig2_rev_7d8_42px.png,,,,,,
544,74,single-stim,0,775,812431,0-0,0FWq9,<p style='font-size:60px; text-align:center; margin-top:50%'>?</p><p style='font-size:20px; text-align:center'>Press <strong>f</strong> for yes <strong>j</strong> for no.</p>,A is shorter than B.,rev,7d8,42px.,rev,
-1,-1,single-stim,0,776,813931,0-0,0FWq9, ,,,,,,
780,32,text,0,777,814711,0-0,0FWq9,,,,,,,
-1,-1,single-stim,0,778,814911,0-0,0FWq9,<p style=font-size:128px; text-align:center; margin-top:50%>+</p>,,,,,,
-1,-1,single-stim,0,779,815111,0-0,0FWq9,stimuli/fig2_rev_3d4_28px.png,,,,,,
608,74,single-stim,0,780,815919,0-0,0FWq9,<p style='font-size:60px; text-align:center; margin-top:50%'>?</p><p style='font-size:20px; text-align:center'>Press <strong>f</strong> for yes <strong>j</strong> for no.</p>,A is taller than B.,rev,3d4,28px.,nor,
-1,-1,single-stim,0,781,817419,0-0,0FWq9, ,,,,,,
332,32,text,0,782,817751,0-0,0FWq9,,,,,,,
-1,-1,single-stim,0,783,817952,0-0,0FWq9,<p style=font-size:128px; text-align:center; margin-top:50%>+</p>,,,,,,
-1,-1,single-stim,0,784,818152,0-0,0FWq9,stimuli/fig2_rev_1d2_28px.png,,,,,,
775,74,single-stim,0,785,819127,0-0,0FWq9,<p style='font-size:60px; text-align:center; margin-top:50%'>?</p><p style='font-size:20px; text-align:center'>Press <strong>f</strong> for yes <strong>j</strong> for no.</p>,A is taller than B.,rev,1d2,28px.,nor,
-1,-1,single-stim,0,786,820628,0-0,0FWq9, ,,,,,,
3051,32,text,0,787,823679,0-0,0FWq9,,,,,,,
-1,-1,single-stim,0,788,823879,0-0,0FWq9,<p style=font-size:128px; text-align:center; margin-top:50%>+</p>,,,,,,
-1,-1,single-stim,0,789,824079,0-0,0FWq9,stimuli/fig2_nor_7d8_28px.png,,,,,,
752,70,single-stim,0,790,825031,0-0,0FWq9,<p style='font-size:60px; text-align:center; margin-top:50%'>?</p><p style='font-size:20px; text-align:center'>Press <strong>f</strong> for yes <strong>j</strong> for no.</p>,A is taller than B.,nor,7d8,28px.,nor,
-1,-1,single-stim,0,791,826531,0-0,0FWq9, ,,,,,,
627,32,text,0,792,827158,0-0,0FWq9,,,,,,,
-1,-1,single-stim,0,793,827359,0-0,0FWq9,<p style=font-size:128px; text-align:center; margin-top:50%>+</p>,,,,,,
-1,-1,single-stim,0,794,827559,0-0,0FWq9,stimuli/fig2_nor_1d2_28px.png,,,,,,
1591,74,single-stim,0,795,829350,0-0,0FWq9,<p style='font-size:60px; text-align:center; margin-top:50%'>?</p><p style='font-size:20px; text-align:center'>Press <strong>f</strong> for yes <strong>j</strong> for no.</p>,A is shorter than B.,nor,1d2,28px.,rev,
-1,-1,single-stim,0,796,830851,0-0,0FWq9, ,,,,,,
558,32,text,0,797,831410,0-0,0FWq9,,,,,,,
-1,-1,single-stim,0,798,831610,0-0,0FWq9,<p style=font-size:128px; text-align:center; margin-top:50%>+</p>,,,,,,
-1,-1,single-stim,0,799,831810,0-0,0FWq9,stimuli/fig2_nor_3d4_28px.png,,,,,,
1196,74,single-stim,0,800,833206,0-0,0FWq9,<p style='font-size:60px; text-align:center; margin-top:50%'>?</p><p style='font-size:20px; text-align:center'>Press <strong>f</strong> for yes <strong>j</strong> for no.</p>,A is shorter than B.,nor,3d4,28px.,rev,
41409,,survey-text,0,801,875621,0-0,0FWq9,,,,,,,{Q0:no,Q1:nothing,Q2:no}
-1,-1,single-stim,0,802,876647,0-0,0FWq9, ,,,,,,
32278,32,text,0,0,32281,0-0,84Whc,,,,,,,
-1,-1,single-stim,0,1,33804,0-0,84Whc, ,,,,,,
2506,32,text,0,2,36313,0-0,84Whc,,,,,,,
-1,-1,single-stim,0,3,36528,0-0,84Whc,<p style=font-size:128px; text-align:center; margin-top:50%>+</p>,,,,,,
-1,-1,single-stim,0,4,36721,0-0,84Whc,stimuli/fig2_nor_9d10_28px.png,,,,,,
1428,74,single-stim,0,5,38364,0-0,84Whc,<p style='font-size:60px; text-align:center; margin-top:50%'>?</p><p style='font-size:20px; text-align:center'>Press <strong>f</strong> for yes <strong>j</strong> for no.</p>,B is taller than A.,nor,9d10,28px,rev,
-1,-1,single-stim,0,6,39888,0-0,84Whc, ,,,,,,
1665,32,text,0,7,41554,0-0,84Whc,,,,,,,
-1,-1,single-stim,0,8,41744,0-0,84Whc,<p style=font-size:128px; text-align:center; margin-top:50%>+</p>,,,,,,
-1,-1,single-stim,0,9,41947,0-0,84Whc,stimuli/fig2_nor_1d2_28px.png,,,,,,
719,70,single-stim,0,10,42883,0-0,84Whc,<p style='font-size:60px; text-align:center; margin-top:50%'>?</p><p style='font-size:20px; text-align:center'>Press <strong>f</strong> for yes <strong>j</strong> for no.</p>,B is shorter than A.,nor,1d2,28px.,nor,
-1,-1,single-stim,0,11,44411,0-0,84Whc, ,,,,,,
1034,32,text,0,12,45445,0-0,84Whc,,,,,,,
-1,-1,single-stim,0,13,45654,0-0,84Whc,<p style=font-size:128px; text-align:center; margin-top:50%>+</p>,,,,,,
-1,-1,single-stim,0,14,45860,0-0,84Whc,stimuli/fig2_nor_9d10_42px.png,,,,,,
1015,74,single-stim,0,15,47091,0-0,84Whc,<p style='font-size:60px; text-align:center; margin-top:50%'>?</p><p style='font-size:20px; text-align:center'>Press <strong>f</strong> for yes <strong>j</strong> for no.</p>,B is taller than A.,nor,9d10,42px,rev,
-1,-1,single-stim,0,16,48608,0-0,84Whc, ,,,,,,
1081,32,text,0,17,49690,0-0,84Whc,,,,,,,
-1,-1,single-stim,0,18,49898,0-0,84Whc,<p style=font-size:128px; text-align:center; margin-top:50%>+</p>,,,,,,
-1,-1,single-stim,0,19,50099,0-0,84Whc,stimuli/fig2_nor_9d10_42px.png,,,,,,
674,70,single-stim,0,20,50968,0-0,84Whc,<p style='font-size:60px; text-align:center; margin-top:50%'>?</p><p style='font-size:20px; text-align:center'>Press <strong>f</strong> for yes <strong>j</strong> for no.</p>,B is shorter than A.,nor,9d10,42px,nor,
-1,-1,single-stim,0,21,52492,0-0,84Whc, ,,,,,,
1267,32,text,0,22,53760,0-0,84Whc,,,,,,,
-1,-1,single-stim,0,23,53968,0-0,84Whc,<p style=font-size:128px; text-align:center; margin-top:50%>+</p>,,,,,,
-1,-1,single-stim,0,24,54165,0-0,84Whc,stimuli/fig2_nor_5d6_42px.png,,,,,,
863,74,single-stim,0,25,55240,0-0,84Whc,<p style='font-size:60px; text-align:center; margin-top:50%'>?</p><p style='font-size:20px; text-align:center'>Press <strong>f</strong> for yes <strong>j</strong> for no.</p>,B is taller than A.,nor,5d6,42px.,rev,
-1,-1,single-stim,0,26,56766,0-0,84Whc, ,,,,,,
1219,32,text,0,27,57987,0-0,84Whc,,,,,,,
-1,-1,single-stim,0,28,58186,0-0,84Whc,<p style=font-size:128px; text-align:center; margin-top:50%>+</p>,,,,,,
-1,-1,single-stim,0,29,58453,0-0,84Whc,stimuli/fig2_rev_3d4_28px.png,,,,,,
4016,74,single-stim,0,30,62673,0-0,84Whc,<p style='font-size:60px; text-align:center; margin-top:50%'>?</p><p style='font-size:20px; text-align:center'>Press <strong>f</strong> for yes <strong>j</strong> for no.</p>,B is taller than A.,rev,3d4,28px.,rev,
-1,-1,single-stim,0,31,64219,0-0,84Whc, ,,,,,,
325,32,text,0,32,64544,0-0,84Whc,,,,,,,
-1,-1,single-stim,0,33,64744,0-0,84Whc,<p style=font-size:128px; text-align:center; margin-top:50%>+</p>,,,,,,
-1,-1,single-stim,0,34,64951,0-0,84Whc,stimuli/fig2_rev_5d6_42px.png,,,,,,
2634,74,single-stim,0,35,67786,0-0,84Whc,<p style='font-size:60px; text-align:center; margin-top:50%'>?</p><p style='font-size:20px; text-align:center'>Press <strong>f</strong> for yes <strong>j</strong> for no.</p>,B is shorter than A.,rev,5d6,42px.,nor,
-1,-1,single-stim,0,36,69308,0-0,84Whc, ,,,,,,
1652,32,text,0,37,70962,0-0,84Whc,,,,,,,
-1,-1,single-stim,0,38,71165,0-0,84Whc,<p style=font-size:128px; text-align:center; margin-top:50%>+</p>,,,,,,
-1,-1,single-stim,0,39,71377,0-0,84Whc,stimuli/fig2_nor_3d4_42px.png,,,,,,
1422,70,single-stim,0,40,73004,0-0,84Whc,<p style='font-size:60px; text-align:center; margin-top:50%'>?</p><p style='font-size:20px; text-align:center'>Press <strong>f</strong> for yes <strong>j</strong> for no.</p>,B is shorter than A.,nor,3d4,42px.,nor,
-1,-1,single-stim,0,41,74519,0-0,84Whc, ,,,,,,
1544,32,text,0,42,76063,0-0,84Whc,,,,,,,
-1,-1,single-stim,0,43,76276,0-0,84Whc,<p style=font-size:128px; text-align:center; margin-top:50%>+</p>,,,,,,
-1,-1,single-stim,0,44,76479,0-0,84Whc,stimuli/fig2_nor_5d6_42px.png,,,,,,
3493,70,single-stim,0,45,80168,0-0,84Whc,<p style='font-size:60px; text-align:center; margin-top:50%'>?</p><p style='font-size:20px; text-align:center'>Press <strong>f</strong> for yes <strong>j</strong> for no.</p>,B is shorter than A.,nor,5d6,42px.,nor,
-1,-1,single-stim,0,46,81694,0-0,84Whc, ,,,,,,
510,32,text,0,47,82205,0-0,84Whc,,,,,,,
-1,-1,single-stim,0,48,82407,0-0,84Whc,<p style=font-size:128px; text-align:center; margin-top:50%>+</p>,,,,,,
-1,-1,single-stim,0,49,82610,0-0,84Whc,stimuli/fig2_nor_5d6_28px.png,,,,,,
1439,74,single-stim,0,50,84251,0-0,84Whc,<p style='font-size:60px; text-align:center; margin-top:50%'>?</p><p style='font-size:20px; text-align:center'>Press <strong>f</strong> for yes <strong>j</strong> for no.</p>,B is shorter than A.,nor,5d6,28px.,nor,
-1,-1,single-stim,0,51,85767,0-0,84Whc, ,,,,,,
710,32,text,0,52,86478,0-0,84Whc,,,,,,,
-1,-1,single-stim,0,53,86685,0-0,84Whc,<p style=font-size:128px; text-align:center; margin-top:50%>+</p>,,,,,,
-1,-1,single-stim,0,54,86899,0-0,84Whc,stimuli/fig2_rev_9d10_42px.png,,,,,,
448,70,single-stim,0,55,87602,0-0,84Whc,<p style='font-size:60px; text-align:center; margin-top:50%'>?</p><p style='font-size:20px; text-align:center'>Press <strong>f</strong> for yes <strong>j</strong> for no.</p>,B is taller than A.,rev,9d10,42px,rev,
-1,-1,single-stim,0,56,89120,0-0,84Whc, ,,,,,,
98,32,text,0,57,89219,0-0,84Whc,,,,,,,
-1,-1,single-stim,0,58,89419,0-0,84Whc,<p style=font-size:128px; text-align:center; margin-top:50%>+</p>,,,,,,
-1,-1,single-stim,0,59,89620,0-0,84Whc,stimuli/fig2_rev_1d2_28px.png,,,,,,
1830,70,single-stim,0,60,91663,0-0,84Whc,<p style='font-size:60px; text-align:center; margin-top:50%'>?</p><p style='font-size:20px; text-align:center'>Press <strong>f</strong> for yes <strong>j</strong> for no.</p>,B is taller than A.,rev,1d2,28px.,rev,
-1,-1,single-stim,0,61,93177,0-0,84Whc, ,,,,,,
1150,32,text,0,62,94329,0-0,84Whc,,,,,,,
-1,-1,single-stim,0,63,94518,0-0,84Whc,<p style=font-size:128px; text-align:center; margin-top:50%>+</p>,,,,,,
-1,-1,single-stim,0,64,94728,0-0,84Whc,stimuli/fig2_nor_1d2_28px.png,,,,,,
689,74,single-stim,0,65,95791,0-0,84Whc,<p style='font-size:60px; text-align:center; margin-top:50%'>?</p><p style='font-size:20px; text-align:center'>Press <strong>f</strong> for yes <strong>j</strong> for no.</p>,B is taller than A.,nor,1d2,28px.,rev,
-1,-1,single-stim,0,66,97309,0-0,84Whc, ,,,,,,
1228,32,text,0,67,98538,0-0,84Whc,,,,,,,
-1,-1,single-stim,0,68,98735,0-0,84Whc,<p style=font-size:128px; text-align:center; margin-top:50%>+</p>,,,,,,
-1,-1,single-stim,0,69,98933,0-0,84Whc,stimuli/fig2_rev_3d4_42px.png,,,,,,
376,70,single-stim,0,70,99512,0-0,84Whc,<p style='font-size:60px; text-align:center; margin-top:50%'>?</p><p style='font-size:20px; text-align:center'>Press <strong>f</strong> for yes <strong>j</strong> for no.</p>,B is taller than A.,rev,3d4,42px.,rev,
-1,-1,single-stim,0,71,101096,0-0,84Whc, ,,,,,,
876,32,text,0,72,101972,0-0,84Whc,,,,,,,
-1,-1,single-stim,0,73,102186,0-0,84Whc,<p style=font-size:128px; text-align:center; margin-top:50%>+</p>,,,,,,
-1,-1,single-stim,0,74,102390,0-0,84Whc,stimuli/fig2_nor_3d4_28px.png,,,,,,
619,70,single-stim,0,75,103212,0-0,84Whc,<p style='font-size:60px; text-align:center; margin-top:50%'>?</p><p style='font-size:20px; text-align:center'>Press <strong>f</strong> for yes <strong>j</strong> for no.</p>,B is shorter than A.,nor,3d4,28px.,nor,
-1,-1,single-stim,0,76,104723,0-0,84Whc, ,,,,,,
411,32,text,0,77,105134,0-0,84Whc,,,,,,,
-1,-1,single-stim,0,78,105338,0-0,84Whc,<p style=font-size:128px; text-align:center; margin-top:50%>+</p>,,,,,,
-1,-1,single-stim,0,79,105532,0-0,84Whc,stimuli/fig2_rev_5d6_28px.png,,,,,,
507,70,single-stim,0,80,106243,0-0,84Whc,<p style='font-size:60px; text-align:center; margin-top:50%'>?</p><p style='font-size:20px; text-align:center'>Press <strong>f</strong> for yes <strong>j</strong> for no.</p>,B is taller than A.,rev,5d6,28px.,rev,
-1,-1,single-stim,0,81,107762,0-0,84Whc, ,,,,,,
934,32,text,0,82,108698,0-0,84Whc,,,,,,,
-1,-1,single-stim,0,83,108901,0-0,84Whc,<p style=font-size:128px; text-align:center; margin-top:50%>+</p>,,,,,,
-1,-1,single-stim,0,84,109174,0-0,84Whc,stimuli/fig2_nor_7d8_42px.png,,,,,,
818,70,single-stim,0,85,110191,0-0,84Whc,<p style='font-size:60px; text-align:center; margin-top:50%'>?</p><p style='font-size:20px; text-align:center'>Press <strong>f</strong> for yes <strong>j</strong> for no.</p>,B is shorter than A.,nor,7d8,42px.,nor,
-1,-1,single-stim,0,86,111728,0-0,84Whc, ,,,,,,
288,32,text,0,87,112017,0-0,84Whc,,,,,,,
-1,-1,single-stim,0,88,112218,0-0,84Whc,<p style=font-size:128px; text-align:center; margin-top:50%>+</p>,,,,,,
-1,-1,single-stim,0,89,112509,0-0,84Whc,stimuli/fig2_nor_1d2_42px.png,,,,,,
508,74,single-stim,0,90,113238,0-0,84Whc,<p style='font-size:60px; text-align:center; margin-top:50%'>?</p><p style='font-size:20px; text-align:center'>Press <strong>f</strong> for yes <strong>j</strong> for no.</p>,B is taller than A.,nor,1d2,42px.,rev,
-1,-1,single-stim,0,91,114828,0-0,84Whc, ,,,,,,
1137,32,text,0,92,115965,0-0,84Whc,,,,,,,
-1,-1,single-stim,0,93,116154,0-0,84Whc,<p style=font-size:128px; text-align:center; margin-top:50%>+</p>,,,,,,
-1,-1,single-stim,0,94,116367,0-0,84Whc,stimuli/fig2_rev_5d6_28px.png,,,,,,
653,74,single-stim,0,95,117226,0-0,84Whc,<p style='font-size:60px; text-align:center; margin-top:50%'>?</p><p style='font-size:20px; text-align:center'>Press <strong>f</strong> for yes <strong>j</strong> for no.</p>,B is shorter than A.,rev,5d6,28px.,nor,
-1,-1,single-stim,0,96,118769,0-0,84Whc, ,,,,,,
1084,32,text,0,97,119855,0-0,84Whc,,,,,,,
-1,-1,single-stim,0,98,120058,0-0,84Whc,<p style=font-size:128px; text-align:center; margin-top:50%>+</p>,,,,,,
-1,-1,single-stim,0,99,120269,0-0,84Whc,stimuli/fig2_rev_1d2_42px.png,,,,,,
3636,70,single-stim,0,100,124109,0-0,84Whc,<p style='font-size:60px; text-align:center; margin-top:50%'>?</p><p style='font-size:20px; text-align:center'>Press <strong>f</strong> for yes <strong>j</strong> for no.</p>,B is taller than A.,rev,1d2,42px.,rev,
-1,-1,single-stim,0,101,125639,0-0,84Whc, ,,,,,,
1082,32,text,0,102,126722,0-0,84Whc,,,,,,,
-1,-1,single-stim,0,103,126928,0-0,84Whc,<p style=font-size:128px; text-align:center; margin-top:50%>+</p>,,,,,,
-1,-1,single-stim,0,104,127124,0-0,84Whc,stimuli/fig2_rev_1d2_28px.png,,,,,,
1200,74,single-stim,0,105,128535,0-0,84Whc,<p style='font-size:60px; text-align:center; margin-top:50%'>?</p><p style='font-size:20px; text-align:center'>Press <strong>f</strong> for yes <strong>j</strong> for no.</p>,B is shorter than A.,rev,1d2,28px.,nor,
-1,-1,single-stim,0,106,130182,0-0,84Whc, ,,,,,,
825,32,text,0,107,131007,0-0,84Whc,,,,,,,
-1,-1,single-stim,0,108,131219,0-0,84Whc,<p style=font-size:128px; text-align:center; margin-top:50%>+</p>,,,,,,
-1,-1,single-stim,0,109,131415,0-0,84Whc,stimuli/fig2_nor_3d4_42px.png,,,,,,
-1,-1,single-stim,0,110,136626,0-0,84Whc,<p style='font-size:60px; text-align:center; margin-top:50%'>?</p><p style='font-size:20px; text-align:center'>Press <strong>f</strong> for yes <strong>j</strong> for no.</p>,B is taller than A.,nor,3d4,42px.,rev,
-1,-1,single-stim,0,111,138235,0-0,84Whc, ,,,,,,
4529,32,text,0,112,142764,0-0,84Whc,,,,,,,
-1,-1,single-stim,0,113,142969,0-0,84Whc,<p style=font-size:128px; text-align:center; margin-top:50%>+</p>,,,,,,
-1,-1,single-stim,0,114,143184,0-0,84Whc,stimuli/fig2_nor_7d8_42px.png,,,,,,
531,74,single-stim,0,115,143912,0-0,84Whc,<p style='font-size:60px; text-align:center; margin-top:50%'>?</p><p style='font-size:20px; text-align:center'>Press <strong>f</strong> for yes <strong>j</strong> for no.</p>,B is taller than A.,nor,7d8,42px.,rev,
-1,-1,single-stim,0,116,145436,0-0,84Whc, ,,,,,,
855,32,text,0,117,146294,0-0,84Whc,,,,,,,
-1,-1,single-stim,0,118,146504,0-0,84Whc,<p style=font-size:128px; text-align:center; margin-top:50%>+</p>,,,,,,
-1,-1,single-stim,0,119,146700,0-0,84Whc,stimuli/fig2_rev_9d10_28px.png,,,,,,
633,74,single-stim,0,120,147541,0-0,84Whc,<p style='font-size:60px; text-align:center; margin-top:50%'>?</p><p style='font-size:20px; text-align:center'>Press <strong>f</strong> for yes <strong>j</strong> for no.</p>,B is shorter than A.,rev,9d10,28px,nor,
-1,-1,single-stim,0,121,149069,0-0,84Whc, ,,,,,,
684,32,text,0,122,149754,0-0,84Whc,,,,,,,
-1,-1,single-stim,0,123,150005,0-0,84Whc,<p style=font-size:128px; text-align:center; margin-top:50%>+</p>,,,,,,
-1,-1,single-stim,0,124,150209,0-0,84Whc,stimuli/fig2_nor_9d10_28px.png,,,,,,
861,70,single-stim,0,125,151278,0-0,84Whc,<p style='font-size:60px; text-align:center; margin-top:50%'>?</p><p style='font-size:20px; text-align:center'>Press <strong>f</strong> for yes <strong>j</strong> for no.</p>,B is shorter than A.,nor,9d10,28px,nor,
-1,-1,single-stim,0,126,152789,0-0,84Whc, ,,,,,,
1153,32,text,0,127,153946,0-0,84Whc,,,,,,,
-1,-1,single-stim,0,128,154148,0-0,84Whc,<p style=font-size:128px; text-align:center; margin-top:50%>+</p>,,,,,,
-1,-1,single-stim,0,129,154353,0-0,84Whc,stimuli/fig2_nor_1d2_42px.png,,,,,,
726,70,single-stim,0,130,155281,0-0,84Whc,<p style='font-size:60px; text-align:center; margin-top:50%'>?</p><p style='font-size:20px; text-align:center'>Press <strong>f</strong> for yes <strong>j</strong> for no.</p>,B is shorter than A.,nor,1d2,42px.,nor,
