"","X","RECORDING_SESSION_LABEL","BUTTON_PRESSED.1.","BUTTON_PRESS_TIME.1.","CURRENT_FIX_BUTTON_2_PRESS","CURRENT_FIX_BUTTON_3_PRESS","CURRENT_FIX_BUTTON_4_PRESS","CURRENT_FIX_DURATION","CURRENT_FIX_INDEX","CURRENT_FIX_INTEREST_AREAS","CURRENT_FIX_INTEREST_AREA_DWELL_TIME","CURRENT_FIX_INTEREST_AREA_FIX_COUNT","CURRENT_FIX_INTEREST_AREA_INDEX","CURRENT_FIX_INTEREST_AREA_LABEL","CURRENT_FIX_LABEL","CURRENT_FIX_MSG_TEXT_1","DATA_FILE","DISPLAY_ON_TIME.1.","EYE_USED","LAST_BUTTON_PRESSED","LAST_BUTTON_PRESSED_TIME","RESPONSE_ACCURACY.1.","RESPONSE_TIME.1.","TRIAL_FIXATION_TOTAL","TRIAL_INDEX","TRIAL_LABEL","TRIAL_START_TIME","block","button_expected","correct","pic_category","sentence","sentence_type","visual","polarity","language","congruence","logCURRENT_FIX_DURATION","Imagewinner","Ratio","PxSize"
"1",1,"t1",2,392297,".",".",".",370,1,"[ 2]",370,1,"2","ROI_CENTER ","Fixation: 7ms","RESET_DATA","t1.edf",391056.812,"RIGHT",".",".","correct",1240,5,1,"Trial: 13",8200444,4,2,0,2,"B < A",2,"fig2_rev_3d4_28px.png","Negative","Math","Incongruent",5.91350300563827,"rev","3d4","28px"
"2",2,"t1",2,392297,".",".",".",108,2,"[ 3]",409,3,"3","ROI_RIGHT ","Fixation: 430ms",".","t1.edf",391056.812,"RIGHT",".",".","correct",1240,5,1,"Trial: 13",8200444,4,2,0,2,"B < A",2,"fig2_rev_3d4_28px.png","Negative","Math","Incongruent",4.68213122712422,"rev","3d4","28px"
"3",3,"t1",2,392297,".",".",".",235,3,"[ 1]",235,1,"1","ROI_LEFT ","Fixation: 609ms",".","t1.edf",391056.812,"RIGHT",".",".","correct",1240,5,1,"Trial: 13",8200444,4,2,0,2,"B < A",2,"fig2_rev_3d4_28px.png","Negative","Math","Incongruent",5.45958551414416,"rev","3d4","28px"
"4",4,"t1",2,392297,".",".",".",231,4,"[ 3]",409,3,"3","ROI_RIGHT ","Fixation: 998ms",".","t1.edf",391056.812,"RIGHT",".",".","correct",1240,5,1,"Trial: 13",8200444,4,2,0,2,"B < A",2,"fig2_rev_3d4_28px.png","Negative","Math","Incongruent",5.44241771052179,"rev","3d4","28px"
"5",5,"t1",2,392297,"1321",".",".",70,5,"[ 3]",409,3,"3","ROI_RIGHT ","Fixation: 1281ms","button_reponse","t1.edf",391056.812,"RIGHT","2","1321","correct",1240,5,1,"Trial: 13",8200444,4,2,0,2,"B < A",2,"fig2_rev_3d4_28px.png","Negative","Math","Incongruent",4.24849524204936,"rev","3d4","28px"
"6",6,"t1",2,399323,".",".",".",116,1,"[ 2]",270,2,"2","ROI_CENTER ","Fixation: 7ms","RESET_DATA","t1.edf",397873.051,"RIGHT",".",".","correct",1449,6,2,"Trial: 14",8207277,4,2,0,3,"B > A",1,"fig2_7d8_42px.png","Positive","Math","Incongruent",4.75359019110636,"nor","7d8","42px"
"7",7,"t1",2,399323,".",".",".",154,2,"[ 2]",270,2,"2","ROI_CENTER ","Fixation: 250ms",".","t1.edf",397873.051,"RIGHT",".",".","correct",1449,6,2,"Trial: 14",8207277,4,2,0,3,"B > A",1,"fig2_7d8_42px.png","Positive","Math","Incongruent",5.03695260241363,"nor","7d8","42px"
"8",8,"t1",2,399323,".",".",".",142,3,"[ 3]",414,2,"3","ROI_RIGHT ","Fixation: 457ms",".","t1.edf",397873.051,"RIGHT",".",".","correct",1449,6,2,"Trial: 14",8207277,4,2,0,3,"B > A",1,"fig2_7d8_42px.png","Positive","Math","Incongruent",4.95582705760126,"nor","7d8","42px"
"9",9,"t1",2,399323,".",".",".",272,4,"[ 3]",414,2,"3","ROI_RIGHT ","Fixation: 625ms",".","t1.edf",397873.051,"RIGHT",".",".","correct",1449,6,2,"Trial: 14",8207277,4,2,0,3,"B > A",1,"fig2_7d8_42px.png","Positive","Math","Incongruent",5.605802066296,"nor","7d8","42px"
"10",10,"t1",2,399323,".",".",".",426,5,"[ 1]",556,2,"1","ROI_LEFT ","Fixation: 964ms",".","t1.edf",397873.051,"RIGHT",".",".","correct",1449,6,2,"Trial: 14",8207277,4,2,0,3,"B > A",1,"fig2_7d8_42px.png","Positive","Math","Incongruent",6.05443934626937,"nor","7d8","42px"
"11",11,"t1",2,399323,"1514",".",".",130,6,"[ 1]",556,2,"1","ROI_LEFT ","Fixation: 1420ms","button_reponse","t1.edf",397873.051,"RIGHT","2","1514","correct",1449,6,2,"Trial: 14",8207277,4,2,0,3,"B > A",1,"fig2_7d8_42px.png","Positive","Math","Incongruent",4.86753445045558,"nor","7d8","42px"
"12",12,"t1",4,405554,".",".",".",295,1,"[ 2]",295,1,"2","ROI_CENTER ","Fixation: 7ms","RESET_DATA","t1.edf",404705.993,"RIGHT",".",".","correct",848,4,3,"Trial: 15",8214097,4,4,1,3,"B < A",2,"fig2_3d4_42px.png","Negative","Math","Congruent",5.68697535633982,"nor","3d4","42px"
"13",13,"t1",4,405554,".",".",".",243,2,"[ 1]",539,3,"1","ROI_LEFT ","Fixation: 348ms",".","t1.edf",404705.993,"RIGHT",".",".","correct",848,4,3,"Trial: 15",8214097,4,4,1,3,"B < A",2,"fig2_3d4_42px.png","Negative","Math","Congruent",5.49306144334055,"nor","3d4","42px"
"14",14,"t1",4,405554,".",".",".",160,3,"[ 1]",539,3,"1","ROI_LEFT ","Fixation: 607ms",".","t1.edf",404705.993,"RIGHT",".",".","correct",848,4,3,"Trial: 15",8214097,4,4,1,3,"B < A",2,"fig2_3d4_42px.png","Negative","Math","Congruent",5.07517381523383,"nor","3d4","42px"
"15",15,"t1",4,405554,".",".","925",136,4,"[ 1]",539,3,"1","ROI_LEFT ","Fixation: 827ms","button_reponse","t1.edf",404705.993,"RIGHT","4","925","correct",848,4,3,"Trial: 15",8214097,4,4,1,3,"B < A",2,"fig2_3d4_42px.png","Negative","Math","Congruent",4.91265488573605,"nor","3d4","42px"
"16",16,"t1",4,412175,".",".",".",613,1,"[ 2]",613,1,"2","ROI_CENTER ","Fixation: 7ms","RESET_DATA","t1.edf",411255.574,"RIGHT",".",".","correct",919,3,4,"Trial: 16",8220653,4,4,1,1,"B < A",2,"fig2_1d2_28px.png","Negative","Math","Congruent",6.41836493593621,"nor","1d2","28px"
"17",17,"t1",4,412175,".",".",".",205,2,"[ 1]",289,2,"1","ROI_LEFT ","Fixation: 680ms",".","t1.edf",411255.574,"RIGHT",".",".","correct",919,3,4,"Trial: 16",8220653,4,4,1,1,"B < A",2,"fig2_1d2_28px.png","Negative","Math","Congruent",5.32300997913841,"nor","1d2","28px"
"18",18,"t1",4,412175,".",".","990",84,3,"[ 1]",289,2,"1","ROI_LEFT ","Fixation: 940ms","button_reponse","t1.edf",411255.574,"RIGHT","4","990","correct",919,3,4,"Trial: 16",8220653,4,4,1,1,"B < A",2,"fig2_1d2_28px.png","Negative","Math","Congruent",4.43081679884331,"nor","1d2","28px"
"19",19,"t1",2,418099,".",".",".",303,1,"[ 2]",303,1,"2","ROI_CENTER ","Fixation: 7ms","RESET_DATA","t1.edf",417188.544,"RIGHT",".",".","correct",910,3,5,"Trial: 17",8226595,4,2,0,4,"B < A",2,"fig2_rev_5d6_42px.png","Negative","Math","Incongruent",5.71373280550937,"rev","5d6","42px"
"20",20,"t1",2,418099,".",".",".",301,2,"[ 1]",301,1,"1","ROI_LEFT ","Fixation: 366ms",".","t1.edf",417188.544,"RIGHT",".",".","correct",910,3,5,"Trial: 17",8226595,4,2,0,4,"B < A",2,"fig2_rev_5d6_42px.png","Negative","Math","Incongruent",5.70711026474888,"rev","5d6","42px"
"21",21,"t1",2,418099,"972",".",".",262,3,"[ 3]",262,1,"3","ROI_RIGHT ","Fixation: 736ms","button_reponse","t1.edf",417188.544,"RIGHT","2","972","correct",910,3,5,"Trial: 17",8226595,4,2,0,4,"B < A",2,"fig2_rev_5d6_42px.png","Negative","Math","Incongruent",5.5683445037611,"rev","5d6","42px"
"22",22,"t1",4,424789,".",".",".",506,1,"[ 2]",506,1,"2","ROI_CENTER ","Fixation: 7ms","RESET_DATA","t1.edf",423254.845,"RIGHT",".",".","correct",1534,5,6,"Trial: 18",8232648,4,4,1,4,"B > A",1,"fig2_rev_5d6_42px.png","Positive","Math","Congruent",6.22653666928747,"rev","5d6","42px"
"23",23,"t1",4,424789,".",".",".",541,2,"[ 3]",877,3,"3","ROI_RIGHT ","Fixation: 576ms",".","t1.edf",423254.845,"RIGHT",".",".","correct",1534,5,6,"Trial: 18",8232648,4,4,1,4,"B > A",1,"fig2_rev_5d6_42px.png","Positive","Math","Congruent",6.29341927884648,"rev","5d6","42px"
"24",24,"t1",4,424789,".",".",".",210,3,"[ 3]",877,3,"3","ROI_RIGHT ","Fixation: 1140ms",".","t1.edf",423254.845,"RIGHT",".",".","correct",1534,5,6,"Trial: 18",8232648,4,4,1,4,"B > A",1,"fig2_rev_5d6_42px.png","Positive","Math","Congruent",5.34710753071747,"rev","5d6","42px"
"25",25,"t1",4,424789,".",".",".",126,4,"[ 3]",877,3,"3","ROI_RIGHT ","Fixation: 1373ms",".","t1.edf",423254.845,"RIGHT",".",".","correct",1534,5,6,"Trial: 18",8232648,4,4,1,4,"B > A",1,"fig2_rev_5d6_42px.png","Positive","Math","Congruent",4.83628190695148,"rev","5d6","42px"
"26",26,"t1",4,424789,".",".","1608",72,5,"[ 1]",72,1,"1","ROI_LEFT ","Fixation: 1573ms","button_reponse","t1.edf",423254.845,"RIGHT","4","1608","correct",1534,5,6,"Trial: 18",8232648,4,4,1,4,"B > A",1,"fig2_rev_5d6_42px.png","Positive","Math","Congruent",4.27666611901606,"rev","5d6","42px"
"27",27,"t1",4,430567,".",".",".",480,1,"[ 2]",480,1,"2","ROI_CENTER ","Fixation: 7ms","RESET_DATA","t1.edf",429704.426,"RIGHT",".",".","correct",862,4,7,"Trial: 19",8239105,4,4,1,4,"B > A",1,"fig2_rev_9d10_42px.png","Positive","Math","Congruent",6.17378610390194,"rev","9d10","42px"
"28",28,"t1",4,430567,".",".",".",171,2,"[ 3]",294,2,"3","ROI_RIGHT ","Fixation: 543ms",".","t1.edf",429704.426,"RIGHT",".",".","correct",862,4,7,"Trial: 19",8239105,4,4,1,4,"B > A",1,"fig2_rev_9d10_42px.png","Positive","Math","Congruent",5.14166355650266,"rev","9d10","42px"
"29",29,"t1",4,430567,".",".","929",123,3,"[ 3]",294,2,"3","ROI_RIGHT ","Fixation: 750ms",".","t1.edf",429704.426,"RIGHT",".",".","correct",862,4,7,"Trial: 19",8239105,4,4,1,4,"B > A",1,"fig2_rev_9d10_42px.png","Positive","Math","Congruent",4.81218435537242,"rev","9d10","42px"
"30",30,"t1",4,430567,".",".",".",37,4,"[ ]",NA,NA,".",".","Fixation: 934ms","blank_screen","t1.edf",429704.426,"RIGHT","4","929","correct",862,4,7,"Trial: 19",8239105,4,4,1,4,"B > A",1,"fig2_rev_9d10_42px.png","Positive","Math","Congruent",3.61091791264422,"rev","9d10","42px"
"31",31,"t1",2,437097,".",".",".",878,1,"[ 2]",1178,2,"2","ROI_CENTER ","Fixation: 7ms","RESET_DATA","t1.edf",435987.394,"RIGHT",".",".","correct",1109,2,8,"Trial: 20",8245383,4,2,0,4,"B < A",2,"fig2_rev_9d10_42px.png","Negative","Math","Incongruent",6.77764659363512,"rev","9d10","42px"
"32",32,"t1",2,437097,"1181",".",".",300,2,"[ 2]",1178,2,"2","ROI_CENTER ","Fixation: 908ms","button_reponse","t1.edf",435987.394,"RIGHT","2","1181","correct",1109,2,8,"Trial: 20",8245383,4,2,0,4,"B < A",2,"fig2_rev_9d10_42px.png","Negative","Math","Incongruent",5.7037824746562,"rev","9d10","42px"
"33",33,"t1",2,443824,".",".",".",561,1,"[ 2]",1295,4,"2","ROI_CENTER ","Fixation: 7ms","RESET_DATA","t1.edf",441737.036,"RIGHT",".",".","correct",2086,7,9,"Trial: 21",8251130,4,2,0,2,"B < A",2,"fig2_rev_7d8_28px.png","Negative","Math","Incongruent",6.3297209055227,"rev","7d8","28px"
"34",34,"t1",2,443824,".",".",".",146,2,"[ 3]",679,3,"3","ROI_RIGHT ","Fixation: 639ms",".","t1.edf",441737.036,"RIGHT",".",".","correct",2086,7,9,"Trial: 21",8251130,4,2,0,2,"B < A",2,"fig2_rev_7d8_28px.png","Negative","Math","Incongruent",4.98360662170834,"rev","7d8","28px"
"35",35,"t1",2,443824,".",".",".",185,3,"[ 3]",679,3,"3","ROI_RIGHT ","Fixation: 833ms",".","t1.edf",441737.036,"RIGHT",".",".","correct",2086,7,9,"Trial: 21",8251130,4,2,0,2,"B < A",2,"fig2_rev_7d8_28px.png","Negative","Math","Incongruent",5.22035582507832,"rev","7d8","28px"
"36",36,"t1",2,443824,".",".",".",348,4,"[ 3]",679,3,"3","ROI_RIGHT ","Fixation: 1073ms",".","t1.edf",441737.036,"RIGHT",".",".","correct",2086,7,9,"Trial: 21",8251130,4,2,0,2,"B < A",2,"fig2_rev_7d8_28px.png","Negative","Math","Incongruent",5.85220247977447,"rev","7d8","28px"
"37",37,"t1",2,443824,".",".",".",302,5,"[ 2]",1295,4,"2","ROI_CENTER ","Fixation: 1441ms",".","t1.edf",441737.036,"RIGHT",".",".","correct",2086,7,9,"Trial: 21",8251130,4,2,0,2,"B < A",2,"fig2_rev_7d8_28px.png","Negative","Math","Incongruent",5.71042701737487,"rev","7d8","28px"
"38",38,"t1",2,443824,".",".",".",292,6,"[ 2]",1295,4,"2","ROI_CENTER ","Fixation: 1755ms",".","t1.edf",441737.036,"RIGHT",".",".","correct",2086,7,9,"Trial: 21",8251130,4,2,0,2,"B < A",2,"fig2_rev_7d8_28px.png","Negative","Math","Incongruent",5.67675380226828,"rev","7d8","28px"
"39",39,"t1",2,443824,"2161",".",".",140,7,"[ 2]",1295,4,"2","ROI_CENTER ","Fixation: 2054ms","button_reponse","t1.edf",441737.036,"RIGHT","2","2161","correct",2086,7,9,"Trial: 21",8251130,4,2,0,2,"B < A",2,"fig2_rev_7d8_28px.png","Negative","Math","Incongruent",4.9416424226093,"rev","7d8","28px"
"40",40,"t1",4,449331,".",".",".",295,1,"[ 2]",345,2,"2","ROI_CENTER ","Fixation: 7ms","RESET_DATA","t1.edf",448453.295,"RIGHT",".",".","correct",877,4,10,"Trial: 22",8257842,4,4,1,2,"B > A",1,"fig2_rev_3d4_28px.png","Positive","Math","Congruent",5.68697535633982,"rev","3d4","28px"
"41",41,"t1",4,449331,".",".",".",201,2,"[ 3]",489,2,"3","ROI_RIGHT ","Fixation: 357ms",".","t1.edf",448453.295,"RIGHT",".",".","correct",877,4,10,"Trial: 22",8257842,4,4,1,2,"B > A",1,"fig2_rev_3d4_28px.png","Positive","Math","Congruent",5.30330490805908,"rev","3d4","28px"
"42",42,"t1",4,449331,".",".",".",288,3,"[ 3]",489,2,"3","ROI_RIGHT ","Fixation: 583ms",".","t1.edf",448453.295,"RIGHT",".",".","correct",877,4,10,"Trial: 22",8257842,4,4,1,2,"B > A",1,"fig2_rev_3d4_28px.png","Positive","Math","Congruent",5.66296048013595,"rev","3d4","28px"
"43",43,"t1",4,449331,".",".","956",50,4,"[ 2]",345,2,"2","ROI_CENTER ","Fixation: 931ms","button_reponse","t1.edf",448453.295,"RIGHT","4","956","correct",877,4,10,"Trial: 22",8257842,4,4,1,2,"B > A",1,"fig2_rev_3d4_28px.png","Positive","Math","Congruent",3.91202300542815,"rev","3d4","28px"
"44",44,"t1",2,455480,".",".",".",425,1,"[ 2]",870,3,"2","ROI_CENTER ","Fixation: 7ms","RESET_DATA","t1.edf",453769.639,"RIGHT",".",".","correct",1710,7,11,"Trial: 23",8263151,4,2,0,1,"B > A",1,"fig2_5d6_28px.png","Positive","Math","Incongruent",6.05208916892442,"nor","5d6","28px"
"45",45,"t1",2,455480,".",".",".",390,2,"[ 2]",870,3,"2","ROI_CENTER ","Fixation: 469ms",".","t1.edf",453769.639,"RIGHT",".",".","correct",1710,7,11,"Trial: 23",8263151,4,2,0,1,"B > A",1,"fig2_5d6_28px.png","Positive","Math","Incongruent",5.96614673912369,"nor","5d6","28px"
"46",46,"t1",2,455480,".",".",".",94,3,"[ 3]",461,3,"3","ROI_RIGHT ","Fixation: 915ms",".","t1.edf",453769.639,"RIGHT",".",".","correct",1710,7,11,"Trial: 23",8263151,4,2,0,1,"B > A",1,"fig2_5d6_28px.png","Positive","Math","Incongruent",4.54329478227,"nor","5d6","28px"
"47",47,"t1",2,455480,".",".",".",172,4,"[ 1]",172,1,"1","ROI_LEFT ","Fixation: 1070ms",".","t1.edf",453769.639,"RIGHT",".",".","correct",1710,7,11,"Trial: 23",8263151,4,2,0,1,"B > A",1,"fig2_5d6_28px.png","Positive","Math","Incongruent",5.14749447681345,"nor","5d6","28px"
"48",48,"t1",2,455480,".",".",".",120,5,"[ 3]",461,3,"3","ROI_RIGHT ","Fixation: 1319ms",".","t1.edf",453769.639,"RIGHT",".",".","correct",1710,7,11,"Trial: 23",8263151,4,2,0,1,"B > A",1,"fig2_5d6_28px.png","Positive","Math","Incongruent",4.78749174278205,"nor","5d6","28px"
"49",49,"t1",2,455480,".",".",".",247,6,"[ 3]",461,3,"3","ROI_RIGHT ","Fixation: 1472ms",".","t1.edf",453769.639,"RIGHT",".",".","correct",1710,7,11,"Trial: 23",8263151,4,2,0,1,"B > A",1,"fig2_5d6_28px.png","Positive","Math","Incongruent",5.50938833662798,"nor","5d6","28px"
"50",50,"t1",2,455480,"1796",".",".",55,7,"[ 2]",870,3,"2","ROI_CENTER ","Fixation: 1767ms","button_reponse","t1.edf",453769.639,"RIGHT","2","1796","correct",1710,7,11,"Trial: 23",8263151,4,2,0,1,"B > A",1,"fig2_5d6_28px.png","Positive","Math","Incongruent",4.00733318523247,"nor","5d6","28px"
"51",51,"t1",2,461771,".",".",".",412,1,"[ 2]",587,2,"2","ROI_CENTER ","Fixation: 7ms","RESET_DATA","t1.edf",460019.231,"RIGHT",".",".","correct",1751,8,12,"Trial: 24",8269407,4,2,0,1,"B > A",1,"fig2_9d10_28px.png","Positive","Math","Incongruent",6.02102334934953,"nor","9d10","28px"
"52",52,"t1",2,461771,".",".",".",124,2,"[ 3]",745,5,"3","ROI_RIGHT ","Fixation: 480ms",".","t1.edf",460019.231,"RIGHT",".",".","correct",1751,8,12,"Trial: 24",8269407,4,2,0,1,"B > A",1,"fig2_9d10_28px.png","Positive","Math","Incongruent",4.82028156560504,"nor","9d10","28px"
"53",53,"t1",2,461771,".",".",".",150,3,"[ 3]",745,5,"3","ROI_RIGHT ","Fixation: 626ms",".","t1.edf",460019.231,"RIGHT",".",".","correct",1751,8,12,"Trial: 24",8269407,4,2,0,1,"B > A",1,"fig2_9d10_28px.png","Positive","Math","Incongruent",5.01063529409626,"nor","9d10","28px"
"54",54,"t1",2,461771,".",".",".",36,4,"[ 3]",745,5,"3","ROI_RIGHT ","Fixation: 829ms",".","t1.edf",460019.231,"RIGHT",".",".","correct",1751,8,12,"Trial: 24",8269407,4,2,0,1,"B > A",1,"fig2_9d10_28px.png","Positive","Math","Incongruent",3.58351893845611,"nor","9d10","28px"
"55",55,"t1",2,461771,".",".",".",168,5,"[ 1]",168,1,"1","ROI_LEFT ","Fixation: 933ms",".","t1.edf",460019.231,"RIGHT",".",".","correct",1751,8,12,"Trial: 24",8269407,4,2,0,1,"B > A",1,"fig2_9d10_28px.png","Positive","Math","Incongruent",5.12396397940326,"nor","9d10","28px"
"56",56,"t1",2,461771,".",".",".",159,6,"[ 3]",745,5,"3","ROI_RIGHT ","Fixation: 1178ms",".","t1.edf",460019.231,"RIGHT",".",".","correct",1751,8,12,"Trial: 24",8269407,4,2,0,1,"B > A",1,"fig2_9d10_28px.png","Positive","Math","Incongruent",5.06890420222023,"nor","9d10","28px"
"57",57,"t1",2,461771,".",".",".",276,7,"[ 3]",745,5,"3","ROI_RIGHT ","Fixation: 1359ms",".","t1.edf",460019.231,"RIGHT",".",".","correct",1751,8,12,"Trial: 24",8269407,4,2,0,1,"B > A",1,"fig2_9d10_28px.png","Positive","Math","Incongruent",5.62040086571715,"nor","9d10","28px"
"58",58,"t1",2,461771,"1831",".",".",175,8,"[ 2]",587,2,"2","ROI_CENTER ","Fixation: 1691ms","button_reponse","t1.edf",460019.231,"RIGHT","2","1831","correct",1751,8,12,"Trial: 24",8269407,4,2,0,1,"B > A",1,"fig2_9d10_28px.png","Positive","Math","Incongruent",5.16478597392351,"nor","9d10","28px"
"59",59,"t1",4,469192,".",".",".",384,1,"[ 2]",384,1,"2","ROI_CENTER ","Fixation: 7ms","RESET_DATA","t1.edf",468202.077,"RIGHT",".",".","correct",989,5,13,"Trial: 25",8277599,4,4,1,3,"B < A",2,"fig2_7d8_42px.png","Negative","Math","Congruent",5.95064255258773,"nor","7d8","42px"
"60",60,"t1",4,469192,".",".",".",183,2,"[ 1]",279,2,"1","ROI_LEFT ","Fixation: 425ms",".","t1.edf",468202.077,"RIGHT",".",".","correct",989,5,13,"Trial: 25",8277599,4,4,1,3,"B < A",2,"fig2_7d8_42px.png","Negative","Math","Congruent",5.20948615284142,"nor","7d8","42px"
"61",61,"t1",4,469192,".",".",".",96,3,"[ 1]",279,2,"1","ROI_LEFT ","Fixation: 664ms",".","t1.edf",468202.077,"RIGHT",".",".","correct",989,5,13,"Trial: 25",8277599,4,4,1,3,"B < A",2,"fig2_7d8_42px.png","Negative","Math","Congruent",4.56434819146784,"nor","7d8","42px"
"62",62,"t1",4,469192,".",".",".",93,4,"[ 3]",180,2,"3","ROI_RIGHT ","Fixation: 832ms",".","t1.edf",468202.077,"RIGHT",".",".","correct",989,5,13,"Trial: 25",8277599,4,4,1,3,"B < A",2,"fig2_7d8_42px.png","Negative","Math","Congruent",4.53259949315326,"nor","7d8","42px"
"63",63,"t1",4,469192,".",".","1060",87,5,"[ 3]",180,2,"3","ROI_RIGHT ","Fixation: 946ms",".","t1.edf",468202.077,"RIGHT",".",".","correct",989,5,13,"Trial: 25",8277599,4,4,1,3,"B < A",2,"fig2_7d8_42px.png","Negative","Math","Congruent",4.46590811865458,"nor","7d8","42px"
"64",64,"t1",4,476091,".",".",".",368,1,"[ 2]",368,1,"2","ROI_CENTER ","Fixation: 7ms","RESET_DATA","t1.edf",474285.036,"RIGHT",".",".","correct",1805,7,14,"Trial: 26",8283679,4,4,1,1,"B < A",2,"fig2_5d6_28px.png","Negative","Math","Congruent",5.90808293816893,"nor","5d6","28px"
"65",65,"t1",4,476091,".",".",".",120,2,"[ 1]",934,4,"1","ROI_LEFT ","Fixation: 422ms",".","t1.edf",474285.036,"RIGHT",".",".","correct",1805,7,14,"Trial: 26",8283679,4,4,1,1,"B < A",2,"fig2_5d6_28px.png","Negative","Math","Congruent",4.78749174278205,"nor","5d6","28px"
"66",66,"t1",4,476091,".",".",".",194,3,"[ 3]",326,2,"3","ROI_RIGHT ","Fixation: 614ms",".","t1.edf",474285.036,"RIGHT",".",".","correct",1805,7,14,"Trial: 26",8283679,4,4,1,1,"B < A",2,"fig2_5d6_28px.png","Negative","Math","Congruent",5.26785815906333,"nor","5d6","28px"
"67",67,"t1",4,476091,".",".",".",132,4,"[ 3]",326,2,"3","ROI_RIGHT ","Fixation: 830ms",".","t1.edf",474285.036,"RIGHT",".",".","correct",1805,7,14,"Trial: 26",8283679,4,4,1,1,"B < A",2,"fig2_5d6_28px.png","Negative","Math","Congruent",4.88280192258637,"nor","5d6","28px"
"68",68,"t1",4,476091,".",".",".",447,5,"[ 1]",934,4,"1","ROI_LEFT ","Fixation: 1025ms",".","t1.edf",474285.036,"RIGHT",".",".","correct",1805,7,14,"Trial: 26",8283679,4,4,1,1,"B < A",2,"fig2_5d6_28px.png","Negative","Math","Congruent",6.10255859461357,"nor","5d6","28px"
"69",69,"t1",4,476091,".",".",".",236,6,"[ 1]",934,4,"1","ROI_LEFT ","Fixation: 1518ms",".","t1.edf",474285.036,"RIGHT",".",".","correct",1805,7,14,"Trial: 26",8283679,4,4,1,1,"B < A",2,"fig2_5d6_28px.png","Negative","Math","Congruent",5.46383180502561,"nor","5d6","28px"
"70",70,"t1",4,476091,".",".","1879",131,7,"[ 1]",934,4,"1","ROI_LEFT ","Fixation: 1778ms","button_reponse","t1.edf",474285.036,"RIGHT","4","1879","correct",1805,7,14,"Trial: 26",8283679,4,4,1,1,"B < A",2,"fig2_5d6_28px.png","Negative","Math","Congruent",4.87519732320115,"nor","5d6","28px"
"71",71,"t1",2,482400,".",".",".",350,1,"[ 2]",1356,4,"2","ROI_CENTER ","Fixation: 7ms","RESET_DATA","t1.edf",480534.639,"RIGHT",".",".","correct",1865,6,15,"Trial: 27",8289936,4,2,0,3,"B > A",1,"fig2_3d4_42px.png","Positive","Math","Incongruent",5.85793315448346,"nor","3d4","42px"
"72",72,"t1",2,482400,".",".",".",195,2,"[ 3]",409,2,"3","ROI_RIGHT ","Fixation: 418ms",".","t1.edf",480534.639,"RIGHT",".",".","correct",1865,6,15,"Trial: 27",8289936,4,2,0,3,"B > A",1,"fig2_3d4_42px.png","Positive","Math","Incongruent",5.27299955856375,"nor","3d4","42px"
"73",73,"t1",2,482400,".",".",".",214,3,"[ 3]",409,2,"3","ROI_RIGHT ","Fixation: 632ms",".","t1.edf",480534.639,"RIGHT",".",".","correct",1865,6,15,"Trial: 27",8289936,4,2,0,3,"B > A",1,"fig2_3d4_42px.png","Positive","Math","Incongruent",5.36597601502185,"nor","3d4","42px"
"74",74,"t1",2,482400,".",".",".",503,4,"[ 2]",1356,4,"2","ROI_CENTER ","Fixation: 905ms",".","t1.edf",480534.639,"RIGHT",".",".","correct",1865,6,15,"Trial: 27",8289936,4,2,0,3,"B > A",1,"fig2_3d4_42px.png","Positive","Math","Incongruent",6.22059017009974,"nor","3d4","42px"
"75",75,"t1",2,482400,".",".",".",397,5,"[ 2]",1356,4,"2","ROI_CENTER ","Fixation: 1444ms",".","t1.edf",480534.639,"RIGHT",".",".","correct",1865,6,15,"Trial: 27",8289936,4,2,0,3,"B > A",1,"fig2_3d4_42px.png","Positive","Math","Incongruent",5.98393628068719,"nor","3d4","42px"
"76",76,"t1",2,482400,"1931",".",".",106,6,"[ 2]",1356,4,"2","ROI_CENTER ","Fixation: 1863ms","button_reponse","t1.edf",480534.639,"RIGHT","2","1931","correct",1865,6,15,"Trial: 27",8289936,4,2,0,3,"B > A",1,"fig2_3d4_42px.png","Positive","Math","Incongruent",4.66343909411207,"nor","3d4","42px"
"77",77,"t1",4,487970,".",".",".",481,1,"[ 2]",481,1,"2","ROI_CENTER ","Fixation: 7ms","RESET_DATA","t1.edf",487184.26,"RIGHT",".",".","correct",785,4,16,"Trial: 28",8296557,4,4,1,2,"B > A",1,"fig2_rev_7d8_28px.png","Positive","Math","Congruent",6.17586727010576,"rev","7d8","28px"
"78",78,"t1",4,487970,".",".",".",99,2,"[ 3]",232,2,"3","ROI_RIGHT ","Fixation: 542ms",".","t1.edf",487184.26,"RIGHT",".",".","correct",785,4,16,"Trial: 28",8296557,4,4,1,2,"B > A",1,"fig2_rev_7d8_28px.png","Positive","Math","Congruent",4.59511985013459,"rev","7d8","28px"
"79",79,"t1",4,487970,".",".",".",133,3,"[ 3]",232,2,"3","ROI_RIGHT ","Fixation: 681ms",".","t1.edf",487184.26,"RIGHT",".",".","correct",785,4,16,"Trial: 28",8296557,4,4,1,2,"B > A",1,"fig2_rev_7d8_28px.png","Positive","Math","Congruent",4.89034912822175,"rev","7d8","28px"
"80",80,"t1",4,487970,".",".","880",39,4,"[ 1]",39,1,"1","ROI_LEFT ","Fixation: 875ms","button_reponse","t1.edf",487184.26,"RIGHT","4","880","correct",785,4,16,"Trial: 28",8296557,4,4,1,2,"B > A",1,"fig2_rev_7d8_28px.png","Positive","Math","Congruent",3.66356164612965,"rev","7d8","28px"
"81",81,"t1",4,492940,".",".",".",283,1,"[ 2]",522,2,"2","ROI_CENTER ","Fixation: 7ms","RESET_DATA","t1.edf",492183.947,"RIGHT",".",".","correct",756,3,17,"Trial: 29",8301571,4,4,1,4,"B > A",1,"fig2_rev_1d2_42px.png","Positive","Math","Congruent",5.64544689764324,"rev","1d2","42px"
"82",82,"t1",4,492940,".",".",".",236,2,"[ 3]",236,1,"3","ROI_RIGHT ","Fixation: 342ms",".","t1.edf",492183.947,"RIGHT",".",".","correct",756,3,17,"Trial: 29",8301571,4,4,1,4,"B > A",1,"fig2_rev_1d2_42px.png","Positive","Math","Congruent",5.46383180502561,"rev","1d2","42px"
"83",83,"t1",4,492940,".",".","836",239,3,"[ 2]",522,2,"2","ROI_CENTER ","Fixation: 627ms","button_reponse","t1.edf",492183.947,"RIGHT","4","836","correct",756,3,17,"Trial: 29",8301571,4,4,1,4,"B > A",1,"fig2_rev_1d2_42px.png","Positive","Math","Congruent",5.47646355193151,"rev","1d2","42px"
"84",84,"t1",2,498081,".",".",".",474,1,"[ 2]",883,2,"2","ROI_CENTER ","Fixation: 7ms","RESET_DATA","t1.edf",497166.951,"RIGHT",".",".","correct",914,3,18,"Trial: 30",8306569,4,2,0,4,"B < A",2,"fig2_rev_1d2_42px.png","Negative","Math","Incongruent",6.16120732169508,"rev","1d2","42px"
"85",85,"t1",2,498081,".",".",".",409,2,"[ 2]",883,2,"2","ROI_CENTER ","Fixation: 519ms",".","t1.edf",497166.951,"RIGHT",".",".","correct",914,3,18,"Trial: 30",8306569,4,2,0,4,"B < A",2,"fig2_rev_1d2_42px.png","Negative","Math","Incongruent",6.0137151560428,"rev","1d2","42px"
"86",86,"t1",2,498081,"979",".",".",56,3,"[ 3]",56,1,"3","ROI_RIGHT ","Fixation: 962ms","button_reponse","t1.edf",497166.951,"RIGHT","2","979","correct",914,3,18,"Trial: 30",8306569,4,2,0,4,"B < A",2,"fig2_rev_1d2_42px.png","Negative","Math","Incongruent",4.02535169073515,"rev","1d2","42px"
"87",87,"t1",2,510666,".",".",".",480,1,"[ 2]",1206,3,"2","ROI_CENTER ","Fixation: 7ms","RESET_DATA","t1.edf",509049.567,"RIGHT",".",".","correct",1616,4,19,"Trial: 31",8318436,4,2,0,1,"B > A",1,"fig2_1d2_28px.png","Positive","Math","Incongruent",6.17378610390194,"nor","1d2","28px"
"88",88,"t1",2,510666,".",".",".",286,2,"[ 3]",286,1,"3","ROI_RIGHT ","Fixation: 543ms",".","t1.edf",509049.567,"RIGHT",".",".","correct",1616,4,19,"Trial: 31",8318436,4,2,0,1,"B > A",1,"fig2_1d2_28px.png","Positive","Math","Incongruent",5.65599181081985,"nor","1d2","28px"
"89",89,"t1",2,510666,".",".",".",386,3,"[ 2]",1206,3,"2","ROI_CENTER ","Fixation: 995ms",".","t1.edf",509049.567,"RIGHT",".",".","correct",1616,4,19,"Trial: 31",8318436,4,2,0,1,"B > A",1,"fig2_1d2_28px.png","Positive","Math","Incongruent",5.95583736946483,"nor","1d2","28px"
"90",90,"t1",2,510666,"1696",".",".",340,4,"[ 2]",1206,3,"2","ROI_CENTER ","Fixation: 1394ms","button_reponse","t1.edf",509049.567,"RIGHT","2","1696","correct",1616,4,19,"Trial: 31",8318436,4,2,0,1,"B > A",1,"fig2_1d2_28px.png","Positive","Math","Incongruent",5.82894561761021,"nor","1d2","28px"
"91",91,"t1",4,517184,".",".",".",485,1,"[ 2]",485,1,"2","ROI_CENTER ","Fixation: 7ms","RESET_DATA","t1.edf",515532.498,"RIGHT",".",".","correct",1651,6,20,"Trial: 32",8324912,4,4,1,1,"B < A",2,"fig2_9d10_28px.png","Negative","Math","Congruent",6.18414889093748,"nor","9d10","28px"
"92",92,"t1",4,517184,".",".",".",105,2,"[ 3]",105,1,"3","ROI_RIGHT ","Fixation: 559ms",".","t1.edf",515532.498,"RIGHT",".",".","correct",1651,6,20,"Trial: 32",8324912,4,4,1,1,"B < A",2,"fig2_9d10_28px.png","Negative","Math","Congruent",4.65396035015752,"nor","9d10","28px"
"93",93,"t1",4,517184,".",".",".",322,3,"[ 1]",848,4,"1","ROI_LEFT ","Fixation: 724ms",".","t1.edf",515532.498,"RIGHT",".",".","correct",1651,6,20,"Trial: 32",8324912,4,4,1,1,"B < A",2,"fig2_9d10_28px.png","Negative","Math","Congruent",5.77455154554441,"nor","9d10","28px"
"94",94,"t1",4,517184,".",".",".",148,4,"[ 1]",848,4,"1","ROI_LEFT ","Fixation: 1180ms",".","t1.edf",515532.498,"RIGHT",".",".","correct",1651,6,20,"Trial: 32",8324912,4,4,1,1,"B < A",2,"fig2_9d10_28px.png","Negative","Math","Congruent",4.99721227376411,"nor","9d10","28px"
"95",95,"t1",4,517184,".",".",".",283,5,"[ 1]",848,4,"1","ROI_LEFT ","Fixation: 1345ms",".","t1.edf",515532.498,"RIGHT",".",".","correct",1651,6,20,"Trial: 32",8324912,4,4,1,1,"B < A",2,"fig2_9d10_28px.png","Negative","Math","Congruent",5.64544689764324,"nor","9d10","28px"
"96",96,"t1",4,517184,".",".","1738",95,6,"[ 1]",848,4,"1","ROI_LEFT ","Fixation: 1679ms","button_reponse","t1.edf",515532.498,"RIGHT","4","1740","correct",1651,6,20,"Trial: 32",8324912,4,4,1,1,"B < A",2,"fig2_9d10_28px.png","Negative","Math","Congruent",4.55387689160054,"nor","9d10","28px"
"97",97,"t1",2,562500,".",".",".",823,1,"[ 2]",1041,2,"2","ROI_CENTER ","Fixation: 7ms","RESET_DATA","t1.edf",561546.339,"RIGHT",".",".","correct",953,2,21,"Trial: 33",8370945,1,2,0,2,"A jest wy?sze ni? B.",1,"fig2_rev_1d2_28px.png","Positive","Polish","Incongruent",6.71295620067707,"rev","1d2","28px"
"98",98,"t1",2,562500,"1021",".",".",218,2,"[ 2]",1041,2,"2","ROI_CENTER ","Fixation: 836ms","button_reponse","t1.edf",561546.339,"RIGHT","2","1021","correct",953,2,21,"Trial: 33",8370945,1,2,0,2,"A jest wy?sze ni? B.",1,"fig2_rev_1d2_28px.png","Positive","Polish","Incongruent",5.38449506278909,"rev","1d2","28px"
"99",99,"t1",2,568513,".",".",".",232,1,"[ 2]",737,3,"2","ROI_CENTER ","Fixation: 7ms","RESET_DATA","t1.edf",567279.331,"RIGHT",".",".","correct",1233,5,22,"Trial: 34",8376664,1,2,0,1,"A jest ni?sze ni? B.",2,"fig2_7d8_28px.png","Negative","Polish","Incongruent",5.44673737166631,"nor","7d8","28px"
"100",100,"t1",2,568513,".",".",".",245,2,"[ 1]",245,1,"1","ROI_LEFT ","Fixation: 292ms",".","t1.edf",567279.331,"RIGHT",".",".","correct",1233,5,22,"Trial: 34",8376664,1,2,0,1,"A jest ni?sze ni? B.",2,"fig2_7d8_28px.png","Negative","Polish","Incongruent",5.50125821054473,"nor","7d8","28px"
"101",101,"t1",2,568513,".",".",".",76,3,"[ 2]",737,3,"2","ROI_CENTER ","Fixation: 595ms",".","t1.edf",567279.331,"RIGHT",".",".","correct",1233,5,22,"Trial: 34",8376664,1,2,0,1,"A jest ni?sze ni? B.",2,"fig2_7d8_28px.png","Negative","Polish","Incongruent",4.33073334028633,"nor","7d8","28px"
"102",102,"t1",2,568513,".",".",".",142,4,"[ 3]",142,1,"3","ROI_RIGHT ","Fixation: 723ms",".","t1.edf",567279.331,"RIGHT",".",".","correct",1233,5,22,"Trial: 34",8376664,1,2,0,1,"A jest ni?sze ni? B.",2,"fig2_7d8_28px.png","Negative","Polish","Incongruent",4.95582705760126,"nor","7d8","28px"
"103",103,"t1",2,568513,"1315",".",".",429,5,"[ 2]",737,3,"2","ROI_CENTER ","Fixation: 922ms","button_reponse","t1.edf",567279.331,"RIGHT","2","1315","correct",1233,5,22,"Trial: 34",8376664,1,2,0,1,"A jest ni?sze ni? B.",2,"fig2_7d8_28px.png","Negative","Polish","Incongruent",6.06145691892802,"nor","7d8","28px"
"104",104,"t1",4,573851,".",".",".",45,1,"[ 2]",384,3,"2","ROI_CENTER ","Fixation: 7ms",".","t1.edf",573162.305,"RIGHT",".",".","correct",688,4,23,"Trial: 35",8382563,1,4,1,2,"A jest ni?sze ni? B.",2,"fig2_rev_1d2_28px.png","Negative","Polish","Congruent",3.80666248977032,"rev","1d2","28px"
"105",105,"t1",4,573851,".",".",".",210,2,"[ 2]",384,3,"2","ROI_CENTER ","Fixation: 66ms",".","t1.edf",573162.305,"RIGHT",".",".","correct",688,4,23,"Trial: 35",8382563,1,4,1,2,"A jest ni?sze ni? B.",2,"fig2_rev_1d2_28px.png","Negative","Polish","Congruent",5.34710753071747,"rev","1d2","28px"
"106",106,"t1",4,573851,".",".",".",272,3,"[ 1]",272,1,"1","ROI_LEFT ","Fixation: 327ms",".","t1.edf",573162.305,"RIGHT",".",".","correct",688,4,23,"Trial: 35",8382563,1,4,1,2,"A jest ni?sze ni? B.",2,"fig2_rev_1d2_28px.png","Negative","Polish","Congruent",5.605802066296,"rev","1d2","28px"
"107",107,"t1",4,573851,".",".","754",129,4,"[ 2]",384,3,"2","ROI_CENTER ","Fixation: 656ms","button_reponse","t1.edf",573162.305,"RIGHT","4","754","correct",688,4,23,"Trial: 35",8382563,1,4,1,2,"A jest ni?sze ni? B.",2,"fig2_rev_1d2_28px.png","Negative","Polish","Congruent",4.85981240436167,"rev","1d2","28px"
"108",108,"t1",4,580544,".",".",".",468,1,"[ 2]",468,1,"2","ROI_CENTER ","Fixation: 7ms","RESET_DATA","t1.edf",578978.617,"RIGHT",".",".","correct",1565,5,24,"Trial: 36",8388371,1,4,1,1,"A jest wy?sze ni? B.",1,"fig2_7d8_28px.png","Positive","Polish","Congruent",6.14846829591765,"nor","7d8","28px"
"109",109,"t1",4,580544,".",".",".",244,2,"[ 1]",1069,4,"1","ROI_LEFT ","Fixation: 534ms",".","t1.edf",578978.617,"RIGHT",".",".","correct",1565,5,24,"Trial: 36",8388371,1,4,1,1,"A jest wy?sze ni? B.",1,"fig2_7d8_28px.png","Positive","Polish","Congruent",5.4971682252932,"nor","7d8","28px"
"110",110,"t1",4,580544,".",".",".",452,3,"[ 1]",1069,4,"1","ROI_LEFT ","Fixation: 797ms",".","t1.edf",578978.617,"RIGHT",".",".","correct",1565,5,24,"Trial: 36",8388371,1,4,1,1,"A jest wy?sze ni? B.",1,"fig2_7d8_28px.png","Positive","Polish","Congruent",6.11368217983223,"nor","7d8","28px"
"111",111,"t1",4,580544,".",".",".",288,4,"[ 1]",1069,4,"1","ROI_LEFT ","Fixation: 1262ms",".","t1.edf",578978.617,"RIGHT",".",".","correct",1565,5,24,"Trial: 36",8388371,1,4,1,1,"A jest wy?sze ni? B.",1,"fig2_7d8_28px.png","Positive","Polish","Congruent",5.66296048013595,"nor","7d8","28px"
"112",112,"t1",4,580544,".",".","1639",85,5,"[ 1]",1069,4,"1","ROI_LEFT ","Fixation: 1592ms","button_reponse","t1.edf",578978.617,"RIGHT","4","1639","correct",1565,5,24,"Trial: 36",8388371,1,4,1,1,"A jest wy?sze ni? B.",1,"fig2_7d8_28px.png","Positive","Polish","Congruent",4.44265125649032,"nor","7d8","28px"
"113",113,"t1",2,586579,".",".",".",467,1,"[ 2]",590,2,"2","ROI_CENTER ","Fixation: 7ms","RESET_DATA","t1.edf",585211.553,"RIGHT",".",".","correct",1367,5,25,"Trial: 37",8394609,1,2,0,2,"A jest wy?sze ni? B.",1,"fig2_rev_9d10_28px.png","Positive","Polish","Incongruent",6.1463292576689,"rev","9d10","28px"
"114",114,"t1",2,586579,".",".",".",271,2,"[ 1]",650,3,"1","ROI_LEFT ","Fixation: 525ms",".","t1.edf",585211.553,"RIGHT",".",".","correct",1367,5,25,"Trial: 37",8394609,1,2,0,2,"A jest wy?sze ni? B.",1,"fig2_rev_9d10_28px.png","Positive","Polish","Incongruent",5.6021188208797,"rev","9d10","28px"
"115",115,"t1",2,586579,".",".",".",123,3,"[ 2]",590,2,"2","ROI_CENTER ","Fixation: 838ms",".","t1.edf",585211.553,"RIGHT",".",".","correct",1367,5,25,"Trial: 37",8394609,1,2,0,2,"A jest wy?sze ni? B.",1,"fig2_rev_9d10_28px.png","Positive","Polish","Incongruent",4.81218435537242,"rev","9d10","28px"
"116",116,"t1",2,586579,".",".",".",176,4,"[ 1]",650,3,"1","ROI_LEFT ","Fixation: 1022ms",".","t1.edf",585211.553,"RIGHT",".",".","correct",1367,5,25,"Trial: 37",8394609,1,2,0,2,"A jest wy?sze ni? B.",1,"fig2_rev_9d10_28px.png","Positive","Polish","Incongruent",5.17048399503815,"rev","9d10","28px"
"117",117,"t1",2,586579,"1436",".",".",203,5,"[ 1]",650,3,"1","ROI_LEFT ","Fixation: 1210ms",".","t1.edf",585211.553,"RIGHT",".",".","correct",1367,5,25,"Trial: 37",8394609,1,2,0,2,"A jest wy?sze ni? B.",1,"fig2_rev_9d10_28px.png","Positive","Polish","Incongruent",5.31320597904179,"rev","9d10","28px"
"118",118,"t1",2,592866,".",".",".",640,1,"[ 2]",1102,2,"2","ROI_CENTER ","Fixation: 7ms","RESET_DATA","t1.edf",591827.835,"RIGHT",".",".","correct",1038,2,26,"Trial: 38",8401213,1,2,0,3,"A jest ni?sze ni? B.",2,"fig2_9d10_42px.png","Negative","Polish","Incongruent",6.46146817635372,"nor","9d10","42px"
"119",119,"t1",2,592866,"1119",".",".",462,2,"[ 2]",1102,2,"2","ROI_CENTER ","Fixation: 689ms","button_reponse","t1.edf",591827.835,"RIGHT","2","1119","correct",1038,2,26,"Trial: 38",8401213,1,2,0,3,"A jest ni?sze ni? B.",2,"fig2_9d10_42px.png","Negative","Polish","Incongruent",6.13556489108174,"nor","9d10","42px"
"120",120,"t1",4,598952,".",".",".",481,1,"[ 2]",481,1,"2","ROI_CENTER ","Fixation: 7ms","RESET_DATA","t1.edf",598160.765,"RIGHT",".",".","correct",791,3,27,"Trial: 39",8407537,1,4,1,4,"A jest ni?sze ni? B.",2,"fig2_rev_3d4_42px.png","Negative","Polish","Congruent",6.17586727010576,"rev","3d4","42px"
"121",121,"t1",4,598952,".",".",".",206,2,"[ 1]",356,2,"1","ROI_LEFT ","Fixation: 536ms",".","t1.edf",598160.765,"RIGHT",".",".","correct",791,3,27,"Trial: 39",8407537,1,4,1,4,"A jest ni?sze ni? B.",2,"fig2_rev_3d4_42px.png","Negative","Polish","Congruent",5.32787616878958,"rev","3d4","42px"
"122",122,"t1",4,598952,".",".","880",150,3,"[ 1]",356,2,"1","ROI_LEFT ","Fixation: 760ms","button_reponse","t1.edf",598160.765,"RIGHT","4","880","correct",791,3,27,"Trial: 39",8407537,1,4,1,4,"A jest ni?sze ni? B.",2,"fig2_rev_3d4_42px.png","Negative","Polish","Congruent",5.01063529409626,"rev","3d4","42px"
"123",123,"t1",4,604303,".",".",".",295,1,"[ 2]",295,1,"2","ROI_CENTER ","Fixation: 7ms","RESET_DATA","t1.edf",603427.102,"RIGHT",".",".","correct",875,4,28,"Trial: 40",8412822,1,4,1,3,"A jest wy?sze ni? B.",1,"fig2_9d10_42px.png","Positive","Polish","Congruent",5.68697535633982,"nor","9d10","42px"
"124",124,"t1",4,604303,".",".",".",214,2,"[ 1]",490,3,"1","ROI_LEFT ","Fixation: 340ms",".","t1.edf",603427.102,"RIGHT",".",".","correct",875,4,28,"Trial: 40",8412822,1,4,1,3,"A jest wy?sze ni? B.",1,"fig2_9d10_42px.png","Positive","Polish","Congruent",5.36597601502185,"nor","9d10","42px"
"125",125,"t1",4,604303,".",".",".",117,3,"[ 1]",490,3,"1","ROI_LEFT ","Fixation: 594ms",".","t1.edf",603427.102,"RIGHT",".",".","correct",875,4,28,"Trial: 40",8412822,1,4,1,3,"A jest wy?sze ni? B.",1,"fig2_9d10_42px.png","Positive","Polish","Congruent",4.76217393479776,"nor","9d10","42px"
"126",126,"t1",4,604303,".",".","946",159,4,"[ 1]",490,3,"1","ROI_LEFT ","Fixation: 732ms",".","t1.edf",603427.102,"RIGHT",".",".","correct",875,4,28,"Trial: 40",8412822,1,4,1,3,"A jest wy?sze ni? B.",1,"fig2_9d10_42px.png","Positive","Polish","Congruent",5.06890420222023,"nor","9d10","42px"
"127",127,"t1",2,609654,".",".",".",512,1,"[ 2]",578,2,"2","ROI_CENTER ","Fixation: 7ms","RESET_DATA","t1.edf",608726.788,"RIGHT",".",".","correct",927,4,29,"Trial: 41",8418124,1,2,0,3,"A jest ni?sze ni? B.",2,"fig2_1d2_42px.png","Negative","Polish","Incongruent",6.23832462503951,"nor","1d2","42px"
"128",128,"t1",2,609654,".",".",".",120,2,"[ 3]",300,2,"3","ROI_RIGHT ","Fixation: 575ms",".","t1.edf",608726.788,"RIGHT",".",".","correct",927,4,29,"Trial: 41",8418124,1,2,0,3,"A jest ni?sze ni? B.",2,"fig2_1d2_42px.png","Negative","Polish","Incongruent",4.78749174278205,"nor","1d2","42px"
"129",129,"t1",2,609654,".",".",".",180,3,"[ 3]",300,2,"3","ROI_RIGHT ","Fixation: 721ms",".","t1.edf",608726.788,"RIGHT",".",".","correct",927,4,29,"Trial: 41",8418124,1,2,0,3,"A jest ni?sze ni? B.",2,"fig2_1d2_42px.png","Negative","Polish","Incongruent",5.19295685089021,"nor","1d2","42px"
"130",130,"t1",2,609654,"995",".",".",66,4,"[ 2]",578,2,"2","ROI_CENTER ","Fixation: 956ms","button_reponse","t1.edf",608726.788,"RIGHT","2","995","correct",927,4,29,"Trial: 41",8418124,1,2,0,3,"A jest ni?sze ni? B.",2,"fig2_1d2_42px.png","Negative","Polish","Incongruent",4.18965474202643,"nor","1d2","42px"
"131",131,"t1",2,614897,".",".",".",359,1,"[ 2]",581,2,"2","ROI_CENTER ","Fixation: 7ms","RESET_DATA","t1.edf",613943.137,"RIGHT",".",".","correct",953,4,30,"Trial: 42",8423328,1,2,0,1,"A jest ni?sze ni? B.",2,"fig2_3d4_28px.png","Negative","Polish","Incongruent",5.88332238848828,"nor","3d4","28px"
"132",132,"t1",2,614897,".",".",".",176,2,"[ 3]",176,1,"3","ROI_RIGHT ","Fixation: 418ms",".","t1.edf",613943.137,"RIGHT",".",".","correct",953,4,30,"Trial: 42",8423328,1,2,0,1,"A jest ni?sze ni? B.",2,"fig2_3d4_28px.png","Negative","Polish","Incongruent",5.17048399503815,"nor","3d4","28px"
"133",133,"t1",2,614897,".",".",".",222,3,"[ 2]",581,2,"2","ROI_CENTER ","Fixation: 642ms",".","t1.edf",613943.137,"RIGHT",".",".","correct",953,4,30,"Trial: 42",8423328,1,2,0,1,"A jest ni?sze ni? B.",2,"fig2_3d4_28px.png","Negative","Polish","Incongruent",5.40267738187228,"nor","3d4","28px"
"134",134,"t1",2,614897,"1034",".",".",148,4,"[ 1]",148,1,"1","ROI_LEFT ","Fixation: 919ms","button_reponse","t1.edf",613943.137,"RIGHT","2","1034","correct",953,4,30,"Trial: 42",8423328,1,2,0,1,"A jest ni?sze ni? B.",2,"fig2_3d4_28px.png","Negative","Polish","Incongruent",4.99721227376411,"nor","3d4","28px"
"135",135,"t1",4,620527,".",".",".",39,1,"[ 2]",455,2,"2","ROI_CENTER ","Fixation: 7ms",".","t1.edf",619592.787,"RIGHT",".",".","correct",934,4,31,"Trial: 43",8428979,1,4,1,4,"A jest ni?sze ni? B.",2,"fig2_rev_7d8_42px.png","Negative","Polish","Congruent",3.66356164612965,"rev","7d8","42px"
"136",136,"t1",4,620527,".",".",".",416,2,"[ 2]",455,2,"2","ROI_CENTER ","Fixation: 61ms","RESET_DATA","t1.edf",619592.787,"RIGHT",".",".","correct",934,4,31,"Trial: 43",8428979,1,4,1,4,"A jest ni?sze ni? B.",2,"fig2_rev_7d8_42px.png","Negative","Polish","Congruent",6.03068526026126,"rev","7d8","42px"
"137",137,"t1",4,620527,".",".",".",174,3,"[ 1]",417,2,"1","ROI_LEFT ","Fixation: 524ms",".","t1.edf",619592.787,"RIGHT",".",".","correct",934,4,31,"Trial: 43",8428979,1,4,1,4,"A jest ni?sze ni? B.",2,"fig2_rev_7d8_42px.png","Negative","Polish","Congruent",5.15905529921453,"rev","7d8","42px"
"138",138,"t1",4,620527,".",".","1013",243,4,"[ 1]",417,2,"1","ROI_LEFT ","Fixation: 722ms",".","t1.edf",619592.787,"RIGHT",".",".","correct",934,4,31,"Trial: 43",8428979,1,4,1,4,"A jest ni?sze ni? B.",2,"fig2_rev_7d8_42px.png","Negative","Polish","Congruent",5.49306144334055,"rev","7d8","42px"
"139",139,"t1",4,626247,".",".",".",407,1,"[ 2]",407,1,"2","ROI_CENTER ","Fixation: 7ms","RESET_DATA","t1.edf",625175.776,"RIGHT",".",".","correct",1071,4,32,"Trial: 44",8434554,1,4,1,3,"A jest wy?sze ni? B.",1,"fig2_5d6_42px.png","Positive","Polish","Congruent",6.00881318544259,"nor","5d6","42px"
"140",140,"t1",4,626247,".",".",".",95,2,"[ 3]",301,2,"3","ROI_RIGHT ","Fixation: 470ms",".","t1.edf",625175.776,"RIGHT",".",".","correct",1071,4,32,"Trial: 44",8434554,1,4,1,3,"A jest wy?sze ni? B.",1,"fig2_5d6_42px.png","Positive","Polish","Congruent",4.55387689160054,"nor","5d6","42px"
"141",141,"t1",4,626247,".",".",".",127,3,"[ 1]",127,1,"1","ROI_LEFT ","Fixation: 631ms",".","t1.edf",625175.776,"RIGHT",".",".","correct",1071,4,32,"Trial: 44",8434554,1,4,1,3,"A jest wy?sze ni? B.",1,"fig2_5d6_42px.png","Positive","Polish","Congruent",4.84418708645859,"nor","5d6","42px"
"142",142,"t1",4,626247,".",".","1158",206,4,"[ 3]",301,2,"3","ROI_RIGHT ","Fixation: 835ms",".","t1.edf",625175.776,"RIGHT",".",".","correct",1071,4,32,"Trial: 44",8434554,1,4,1,3,"A jest wy?sze ni? B.",1,"fig2_5d6_42px.png","Positive","Polish","Congruent",5.32787616878958,"nor","5d6","42px"
"143",143,"t1",2,631176,".",".",".",130,1,"[ 2]",630,2,"2","ROI_CENTER ","Fixation: 7ms","RESET_DATA","t1.edf",630408.798,"RIGHT",".",".","correct",767,3,33,"Trial: 45",8439799,1,2,0,4,"A jest wy?sze ni? B.",1,"fig2_rev_3d4_42px.png","Positive","Polish","Incongruent",4.86753445045558,"rev","3d4","42px"
"144",144,"t1",2,631176,".",".",".",500,2,"[ 2]",630,2,"2","ROI_CENTER ","Fixation: 160ms",".","t1.edf",630408.798,"RIGHT",".",".","correct",767,3,33,"Trial: 45",8439799,1,2,0,4,"A jest wy?sze ni? B.",1,"fig2_rev_3d4_42px.png","Positive","Polish","Incongruent",6.21460809842219,"rev","3d4","42px"
"145",145,"t1",2,631176,"842",".",".",173,3,"[ 1]",173,1,"1","ROI_LEFT ","Fixation: 705ms","button_reponse","t1.edf",630408.798,"RIGHT","2","842","correct",767,3,33,"Trial: 45",8439799,1,2,0,4,"A jest wy?sze ni? B.",1,"fig2_rev_3d4_42px.png","Positive","Polish","Incongruent",5.15329159449778,"rev","3d4","42px"
"146",146,"t1",4,636755,".",".",".",412,1,"[ 2]",540,2,"2","ROI_CENTER ","Fixation: 7ms","RESET_DATA","t1.edf",636058.451,"RIGHT",".",".","correct",696,3,34,"Trial: 46",8445447,1,4,1,1,"A jest wy?sze ni? B.",1,"fig2_3d4_28px.png","Positive","Polish","Congruent",6.02102334934953,"nor","3d4","28px"
"147",147,"t1",4,636755,".",".",".",128,2,"[ 2]",540,2,"2","ROI_CENTER ","Fixation: 462ms",".","t1.edf",636058.451,"RIGHT",".",".","correct",696,3,34,"Trial: 46",8445447,1,4,1,1,"A jest wy?sze ni? B.",1,"fig2_3d4_28px.png","Positive","Polish","Congruent",4.85203026391962,"nor","3d4","28px"
"148",148,"t1",4,636755,".",".","773",183,3,"[ 1]",183,1,"1","ROI_LEFT ","Fixation: 630ms","button_reponse","t1.edf",636058.451,"RIGHT","4","773","correct",696,3,34,"Trial: 46",8445447,1,4,1,1,"A jest wy?sze ni? B.",1,"fig2_3d4_28px.png","Positive","Polish","Congruent",5.20948615284142,"nor","3d4","28px"
"149",149,"t1",2,641965,".",".",".",340,1,"[ 2]",498,2,"2","ROI_CENTER ","Fixation: 7ms","RESET_DATA","t1.edf",641024.804,"RIGHT",".",".","correct",940,4,35,"Trial: 47",8450402,1,2,0,4,"A jest wy?sze ni? B.",1,"fig2_rev_7d8_42px.png","Positive","Polish","Incongruent",5.82894561761021,"rev","7d8","42px"
"150",150,"t1",2,641965,".",".",".",198,2,"[ 1]",198,1,"1","ROI_LEFT ","Fixation: 396ms",".","t1.edf",641024.804,"RIGHT",".",".","correct",940,4,35,"Trial: 47",8450402,1,2,0,4,"A jest wy?sze ni? B.",1,"fig2_rev_7d8_42px.png","Positive","Polish","Incongruent",5.28826703069454,"rev","7d8","42px"
"151",151,"t1",2,641965,".",".",".",155,3,"[ 3]",155,1,"3","ROI_RIGHT ","Fixation: 664ms",".","t1.edf",641024.804,"RIGHT",".",".","correct",940,4,35,"Trial: 47",8450402,1,2,0,4,"A jest wy?sze ni? B.",1,"fig2_rev_7d8_42px.png","Positive","Polish","Incongruent",5.04342511691925,"rev","7d8","42px"
"152",152,"t1",2,641965,"1028",".",".",158,4,"[ 2]",498,2,"2","ROI_CENTER ","Fixation: 876ms","button_reponse","t1.edf",641024.804,"RIGHT","2","1028","correct",940,4,35,"Trial: 47",8450402,1,2,0,4,"A jest wy?sze ni? B.",1,"fig2_rev_7d8_42px.png","Positive","Polish","Incongruent",5.06259503302697,"rev","7d8","42px"
"153",153,"t1",2,648722,".",".",".",563,1,"[ 2]",947,2,"2","ROI_CENTER ","Fixation: 7ms","RESET_DATA","t1.edf",647541.068,"RIGHT",".",".","correct",1180,3,36,"Trial: 48",8456926,1,2,0,3,"A jest ni?sze ni? B.",2,"fig2_5d6_42px.png","Negative","Polish","Incongruent",6.33327962813969,"nor","5d6","42px"
"154",154,"t1",2,648722,".",".",".",206,2,"[ 3]",206,1,"3","ROI_RIGHT ","Fixation: 628ms",".","t1.edf",647541.068,"RIGHT",".",".","correct",1180,3,36,"Trial: 48",8456926,1,2,0,3,"A jest ni?sze ni? B.",2,"fig2_5d6_42px.png","Negative","Polish","Incongruent",5.32787616878958,"nor","5d6","42px"
"155",155,"t1",2,648722,"1261",".",".",384,3,"[ 2]",947,2,"2","ROI_CENTER ","Fixation: 883ms","button_reponse","t1.edf",647541.068,"RIGHT","2","1261","correct",1180,3,36,"Trial: 48",8456926,1,2,0,3,"A jest ni?sze ni? B.",2,"fig2_5d6_42px.png","Negative","Polish","Incongruent",5.95064255258773,"nor","5d6","42px"
"156",156,"t1",4,654718,".",".",".",448,1,"[ 1]",761,3,"1","ROI_LEFT ","Fixation: 14ms","RESET_DATA","t1.edf",653424.044,"RIGHT",".",".","correct",1293,4,37,"Trial: 49",8462809,1,4,1,2,"A jest ni?sze ni? B.",2,"fig2_rev_5d6_28px.png","Negative","Polish","Congruent",6.10479323241498,"rev","5d6","28px"
"157",157,"t1",4,654718,".",".",".",209,2,"[ 1]",761,3,"1","ROI_LEFT ","Fixation: 505ms",".","t1.edf",653424.044,"RIGHT",".",".","correct",1293,4,37,"Trial: 49",8462809,1,4,1,2,"A jest ni?sze ni? B.",2,"fig2_rev_5d6_28px.png","Negative","Polish","Congruent",5.34233425196481,"rev","5d6","28px"
"158",158,"t1",4,654718,".",".",".",472,3,"[ 2]",472,1,"2","ROI_CENTER ","Fixation: 776ms",".","t1.edf",653424.044,"RIGHT",".",".","correct",1293,4,37,"Trial: 49",8462809,1,4,1,2,"A jest ni?sze ni? B.",2,"fig2_rev_5d6_28px.png","Negative","Polish","Congruent",6.15697898558556,"rev","5d6","28px"
"159",159,"t1",4,654718,".",".","1374",104,4,"[ 1]",761,3,"1","ROI_LEFT ","Fixation: 1296ms","button_reponse","t1.edf",653424.044,"RIGHT","4","1374","correct",1293,4,37,"Trial: 49",8462809,1,4,1,2,"A jest ni?sze ni? B.",2,"fig2_rev_5d6_28px.png","Negative","Polish","Congruent",4.64439089914137,"rev","5d6","28px"
"160",160,"t1",4,659986,".",".",".",631,1,"[ 2]",753,2,"2","ROI_CENTER ","Fixation: 7ms","RESET_DATA","t1.edf",659323.681,"RIGHT",".",".","correct",662,2,38,"Trial: 50",8468713,1,4,1,3,"A jest wy?sze ni? B.",1,"fig2_1d2_42px.png","Positive","Polish","Congruent",6.44730586254121,"nor","1d2","42px"
"161",161,"t1",4,659986,".",".","738",122,2,"[ 2]",753,2,"2","ROI_CENTER ","Fixation: 657ms","button_reponse","t1.edf",659323.681,"RIGHT","4","738","correct",662,2,38,"Trial: 50",8468713,1,4,1,3,"A jest wy?sze ni? B.",1,"fig2_1d2_42px.png","Positive","Polish","Congruent",4.80402104473326,"nor","1d2","42px"
"162",162,"t1",2,665786,".",".",".",318,1,"[ 2]",318,1,"2","ROI_CENTER ","Fixation: 7ms","RESET_DATA","t1.edf",664823.339,"RIGHT",".",".","correct",962,4,39,"Trial: 51",8474208,1,2,0,2,"A jest wy?sze ni? B.",1,"fig2_rev_5d6_28px.png","Positive","Polish","Incongruent",5.76205138278018,"rev","5d6","28px"
"163",163,"t1",2,665786,".",".",".",251,2,"[ 1]",308,2,"1","ROI_LEFT ","Fixation: 381ms",".","t1.edf",664823.339,"RIGHT",".",".","correct",962,4,39,"Trial: 51",8474208,1,2,0,2,"A jest wy?sze ni? B.",1,"fig2_rev_5d6_28px.png","Positive","Polish","Incongruent",5.52545293913178,"rev","5d6","28px"
"164",164,"t1",2,665786,".",".",".",280,3,"[ 3]",280,1,"3","ROI_RIGHT ","Fixation: 704ms",".","t1.edf",664823.339,"RIGHT",".",".","correct",962,4,39,"Trial: 51",8474208,1,2,0,2,"A jest wy?sze ni? B.",1,"fig2_rev_5d6_28px.png","Positive","Polish","Incongruent",5.63478960316925,"rev","5d6","28px"
"165",165,"t1",2,665786,"1043",".",".",57,4,"[ 1]",308,2,"1","ROI_LEFT ","Fixation: 1026ms","button_reponse","t1.edf",664823.339,"RIGHT","2","1043","correct",962,4,39,"Trial: 51",8474208,1,2,0,2,"A jest wy?sze ni? B.",1,"fig2_rev_5d6_28px.png","Positive","Polish","Incongruent",4.04305126783455,"rev","5d6","28px"
"166",166,"t1",4,671096,".",".",".",37,1,"[ 2]",1008,3,"2","ROI_CENTER ","Fixation: 7ms",".","t1.edf",670139.687,"RIGHT",".",".","correct",956,3,40,"Trial: 52",8479535,1,4,1,2,"A jest ni?sze ni? B.",2,"fig2_rev_9d10_28px.png","Negative","Polish","Congruent",3.61091791264422,"rev","9d10","28px"
"167",167,"t1",4,671096,".",".",".",369,2,"[ 2]",1008,3,"2","ROI_CENTER ","Fixation: 66ms","SYNCTIME","t1.edf",670139.687,"RIGHT",".",".","correct",956,3,40,"Trial: 52",8479535,1,4,1,2,"A jest ni?sze ni? B.",2,"fig2_rev_9d10_28px.png","Negative","Polish","Congruent",5.91079664404053,"rev","9d10","28px"
"168",168,"t1",4,671096,".",".","1026",602,3,"[ 2]",1008,3,"2","ROI_CENTER ","Fixation: 454ms","button_reponse","t1.edf",670139.687,"RIGHT","4","1026","correct",956,3,40,"Trial: 52",8479535,1,4,1,2,"A jest ni?sze ni? B.",2,"fig2_rev_9d10_28px.png","Negative","Polish","Congruent",6.40025744530882,"rev","9d10","28px"
"169",169,"t1",4,767654,".",".",".",259,1,"[ 2]",259,1,"2","ROI_CENTER ","Fixation: 7ms","RESET_DATA","t1.edf",765817.149,"RIGHT",".",".","correct",1836,7,41,"Trial: 53",8575216,2,4,1,2,"B jest wy?sze ni? A.",1,"fig2_rev_7d8_28px.png","Positive","Polish","Congruent",5.55682806169954,"rev","7d8","28px"
"170",170,"t1",4,767654,".",".",".",221,2,"[ 3]",1448,6,"3","ROI_RIGHT ","Fixation: 334ms",".","t1.edf",765817.149,"RIGHT",".",".","correct",1836,7,41,"Trial: 53",8575216,2,4,1,2,"B jest wy?sze ni? A.",1,"fig2_rev_7d8_28px.png","Positive","Polish","Congruent",5.39816270151775,"rev","7d8","28px"
"171",171,"t1",4,767654,".",".",".",253,3,"[ 3]",1448,6,"3","ROI_RIGHT ","Fixation: 575ms",".","t1.edf",765817.149,"RIGHT",".",".","correct",1836,7,41,"Trial: 53",8575216,2,4,1,2,"B jest wy?sze ni? A.",1,"fig2_rev_7d8_28px.png","Positive","Polish","Congruent",5.53338948872752,"rev","7d8","28px"
"172",172,"t1",4,767654,".",".",".",306,4,"[ 3]",1448,6,"3","ROI_RIGHT ","Fixation: 881ms",".","t1.edf",765817.149,"RIGHT",".",".","correct",1836,7,41,"Trial: 53",8575216,2,4,1,2,"B jest wy?sze ni? A.",1,"fig2_rev_7d8_28px.png","Positive","Polish","Congruent",5.72358510195238,"rev","7d8","28px"
"173",173,"t1",4,767654,".",".",".",415,5,"[ 3]",1448,6,"3","ROI_RIGHT ","Fixation: 1225ms",".","t1.edf",765817.149,"RIGHT",".",".","correct",1836,7,41,"Trial: 53",8575216,2,4,1,2,"B jest wy?sze ni? A.",1,"fig2_rev_7d8_28px.png","Positive","Polish","Congruent",6.0282785202307,"rev","7d8","28px"
"174",174,"t1",4,767654,".",".",".",219,6,"[ 3]",1448,6,"3","ROI_RIGHT ","Fixation: 1664ms",".","t1.edf",765817.149,"RIGHT",".",".","correct",1836,7,41,"Trial: 53",8575216,2,4,1,2,"B jest wy?sze ni? A.",1,"fig2_rev_7d8_28px.png","Positive","Polish","Congruent",5.3890717298165,"rev","7d8","28px"
"175",175,"t1",4,767654,".",".","1902",34,7,"[ 3]",1448,6,"3","ROI_RIGHT ","Fixation: 1901ms","button_reponse","t1.edf",765817.149,"RIGHT","4","1902","correct",1836,7,41,"Trial: 53",8575216,2,4,1,2,"B jest wy?sze ni? A.",1,"fig2_rev_7d8_28px.png","Positive","Polish","Congruent",3.52636052461616,"rev","7d8","28px"
"176",176,"t1",4,775252,".",".",".",57,1,"[ 2]",942,3,"2","ROI_CENTER ","Fixation: 7ms","RESET_DATA","t1.edf",772933.381,"RIGHT",".",".","correct",2318,9,42,"Trial: 54",8582322,2,4,1,1,"B jest ni?sze ni? A.",2,"fig2_9d10_28px.png","Negative","Polish","Congruent",4.04305126783455,"nor","9d10","28px"
"177",177,"t1",4,775252,".",".",".",322,2,"[ 2]",942,3,"2","ROI_CENTER ","Fixation: 196ms",".","t1.edf",772933.381,"RIGHT",".",".","correct",2318,9,42,"Trial: 54",8582322,2,4,1,1,"B jest ni?sze ni? A.",2,"fig2_9d10_28px.png","Negative","Polish","Congruent",5.77455154554441,"nor","9d10","28px"
"178",178,"t1",4,775252,".",".",".",103,3,"[ 3]",885,5,"3","ROI_RIGHT ","Fixation: 570ms",".","t1.edf",772933.381,"RIGHT",".",".","correct",2318,9,42,"Trial: 54",8582322,2,4,1,1,"B jest ni?sze ni? A.",2,"fig2_9d10_28px.png","Negative","Polish","Congruent",4.63472898822964,"nor","9d10","28px"
"179",179,"t1",4,775252,".",".",".",305,4,"[ 3]",885,5,"3","ROI_RIGHT ","Fixation: 698ms",".","t1.edf",772933.381,"RIGHT",".",".","correct",2318,9,42,"Trial: 54",8582322,2,4,1,1,"B jest ni?sze ni? A.",2,"fig2_9d10_28px.png","Negative","Polish","Congruent",5.72031177660741,"nor","9d10","28px"
"180",180,"t1",4,775252,".",".",".",194,5,"[ 3]",885,5,"3","ROI_RIGHT ","Fixation: 1022ms",".","t1.edf",772933.381,"RIGHT",".",".","correct",2318,9,42,"Trial: 54",8582322,2,4,1,1,"B jest ni?sze ni? A.",2,"fig2_9d10_28px.png","Negative","Polish","Congruent",5.26785815906333,"nor","9d10","28px"
"181",181,"t1",4,775252,".",".",".",563,6,"[ 2]",942,3,"2","ROI_CENTER ","Fixation: 1276ms",".","t1.edf",772933.381,"RIGHT",".",".","correct",2318,9,42,"Trial: 54",8582322,2,4,1,1,"B jest ni?sze ni? A.",2,"fig2_9d10_28px.png","Negative","Polish","Congruent",6.33327962813969,"nor","9d10","28px"
"182",182,"t1",4,775252,".",".",".",239,7,"[ 3]",885,5,"3","ROI_RIGHT ","Fixation: 1870ms",".","t1.edf",772933.381,"RIGHT",".",".","correct",2318,9,42,"Trial: 54",8582322,2,4,1,1,"B jest ni?sze ni? A.",2,"fig2_9d10_28px.png","Negative","Polish","Congruent",5.47646355193151,"nor","9d10","28px"
"183",183,"t1",4,775252,".",".",".",44,8,"[ 3]",885,5,"3","ROI_RIGHT ","Fixation: 2162ms",".","t1.edf",772933.381,"RIGHT",".",".","correct",2318,9,42,"Trial: 54",8582322,2,4,1,1,"B jest ni?sze ni? A.",2,"fig2_9d10_28px.png","Negative","Polish","Congruent",3.78418963391826,"nor","9d10","28px"
"184",184,"t1",4,775252,".",".","2393",119,9,"[ 1]",119,1,"1","ROI_LEFT ","Fixation: 2278ms","button_reponse","t1.edf",772933.381,"RIGHT","4","2393","correct",2318,9,42,"Trial: 54",8582322,2,4,1,1,"B jest ni?sze ni? A.",2,"fig2_9d10_28px.png","Negative","Polish","Congruent",4.77912349311153,"nor","9d10","28px"
"185",185,"t1",2,781067,".",".",".",669,1,"[ 2]",975,2,"2","ROI_CENTER ","Fixation: 7ms","RESET_DATA","t1.edf",780149.598,"RIGHT",".",".","correct",917,2,43,"Trial: 55",8589546,2,2,0,2,"B jest ni?sze ni? A.",2,"fig2_rev_3d4_28px.png","Negative","Polish","Incongruent",6.50578406012823,"rev","3d4","28px"
"186",186,"t1",2,781067,"984",".",".",306,2,"[ 2]",975,2,"2","ROI_CENTER ","Fixation: 715ms","button_reponse","t1.edf",780149.598,"RIGHT","2","984","correct",917,2,43,"Trial: 55",8589546,2,2,0,2,"B jest ni?sze ni? A.",2,"fig2_rev_3d4_28px.png","Negative","Polish","Incongruent",5.72358510195238,"rev","3d4","28px"
"187",187,"t1",2,787140,".",".",".",283,1,"[ 2]",283,1,"2","ROI_CENTER ","Fixation: 7ms","RESET_DATA","t1.edf",785949.241,"RIGHT",".",".","correct",1190,5,44,"Trial: 56",8595338,2,2,0,3,"B jest wy?sze ni? A.",1,"fig2_3d4_42px.png","Positive","Polish","Incongruent",5.64544689764324,"nor","3d4","42px"
"188",188,"t1",2,787140,".",".",".",148,2,"[ 1]",148,1,"1","ROI_LEFT ","Fixation: 344ms",".","t1.edf",785949.241,"RIGHT",".",".","correct",1190,5,44,"Trial: 56",8595338,2,2,0,3,"B jest wy?sze ni? A.",1,"fig2_3d4_42px.png","Positive","Polish","Incongruent",4.99721227376411,"nor","3d4","42px"
"189",189,"t1",2,787140,".",".",".",138,3,"[ 3]",576,3,"3","ROI_RIGHT ","Fixation: 631ms",".","t1.edf",785949.241,"RIGHT",".",".","correct",1190,5,44,"Trial: 56",8595338,2,2,0,3,"B jest wy?sze ni? A.",1,"fig2_3d4_42px.png","Positive","Polish","Incongruent",4.92725368515721,"nor","3d4","42px"
"190",190,"t1",2,787140,".",".",".",295,4,"[ 3]",576,3,"3","ROI_RIGHT ","Fixation: 801ms",".","t1.edf",785949.241,"RIGHT",".",".","correct",1190,5,44,"Trial: 56",8595338,2,2,0,3,"B jest wy?sze ni? A.",1,"fig2_3d4_42px.png","Positive","Polish","Incongruent",5.68697535633982,"nor","3d4","42px"
"191",191,"t1",2,787140,"1265",".",".",143,5,"[ 3]",576,3,"3","ROI_RIGHT ","Fixation: 1151ms","button_reponse","t1.edf",785949.241,"RIGHT","2","1265","correct",1190,5,44,"Trial: 56",8595338,2,2,0,3,"B jest wy?sze ni? A.",1,"fig2_3d4_42px.png","Positive","Polish","Incongruent",4.96284463025991,"nor","3d4","42px"
"192",192,"t1",4,794572,".",".",".",391,1,"[ 2]",391,1,"2","ROI_CENTER ","Fixation: 7ms","RESET_DATA","t1.edf",793798.757,"RIGHT",".",".","correct",773,3,45,"Trial: 57",8603184,2,4,1,2,"B jest wy?sze ni? A.",1,"fig2_rev_3d4_28px.png","Positive","Polish","Congruent",5.96870755998537,"rev","3d4","28px"
"193",193,"t1",4,794572,".",".",".",186,2,"[ 3]",398,2,"3","ROI_RIGHT ","Fixation: 446ms",".","t1.edf",793798.757,"RIGHT",".",".","correct",773,3,45,"Trial: 57",8603184,2,4,1,2,"B jest wy?sze ni? A.",1,"fig2_rev_3d4_28px.png","Positive","Polish","Congruent",5.2257466737132,"rev","3d4","28px"
"194",194,"t1",4,794572,".",".","851",212,3,"[ 3]",398,2,"3","ROI_RIGHT ","Fixation: 669ms","button_reponse","t1.edf",793798.757,"RIGHT","4","851","correct",773,3,45,"Trial: 57",8603184,2,4,1,2,"B jest wy?sze ni? A.",1,"fig2_rev_3d4_28px.png","Positive","Polish","Congruent",5.35658627467201,"rev","3d4","28px"
"195",195,"t1",2,800392,"1146",".",".",1165,1,"[ 2]",1165,1,"2","ROI_CENTER ","Fixation: 7ms","RESET_DATA","t1.edf",799315.083,"RIGHT","2","1146","correct",1076,1,46,"Trial: 58",8608709,2,2,0,1,"B jest wy?sze ni? A.",1,"fig2_1d2_28px.png","Positive","Polish","Incongruent",7.0604763659998,"nor","1d2","28px"
"196",196,"t1",4,808012,".",".",".",414,1,"[ 2]",414,1,"2","ROI_CENTER ","Fixation: 7ms","RESET_DATA","t1.edf",806614.645,"RIGHT",".",".","correct",1397,4,47,"Trial: 59",8616002,2,4,1,1,"B jest ni?sze ni? A.",2,"fig2_5d6_28px.png","Negative","Polish","Congruent",6.02586597382531,"nor","5d6","28px"
"197",197,"t1",4,808012,".",".",".",102,2,"[ 3]",256,2,"3","ROI_RIGHT ","Fixation: 478ms",".","t1.edf",806614.645,"RIGHT",".",".","correct",1397,4,47,"Trial: 59",8616002,2,4,1,1,"B jest ni?sze ni? A.",2,"fig2_5d6_28px.png","Negative","Polish","Congruent",4.62497281328427,"nor","5d6","28px"
"198",198,"t1",4,808012,".",".",".",154,3,"[ 3]",256,2,"3","ROI_RIGHT ","Fixation: 610ms",".","t1.edf",806614.645,"RIGHT",".",".","correct",1397,4,47,"Trial: 59",8616002,2,4,1,1,"B jest ni?sze ni? A.",2,"fig2_5d6_28px.png","Negative","Polish","Congruent",5.03695260241363,"nor","5d6","28px"
"199",199,"t1",4,808012,".",".","1473",677,4,"[ 1]",677,1,"1","ROI_LEFT ","Fixation: 835ms","button_reponse","t1.edf",806614.645,"RIGHT","4","1473","correct",1397,4,47,"Trial: 59",8616002,2,4,1,1,"B jest ni?sze ni? A.",2,"fig2_5d6_28px.png","Negative","Polish","Congruent",6.51767127291227,"nor","5d6","28px"
"200",200,"t1",4,813893,".",".",".",218,1,"[ 2]",218,1,"2","ROI_CENTER ","Fixation: 7ms","RESET_DATA","t1.edf",812497.603,"RIGHT",".",".","correct",1395,6,48,"Trial: 60",8621894,2,4,1,3,"B jest ni?sze ni? A.",2,"fig2_7d8_42px.png","Negative","Polish","Congruent",5.38449506278909,"nor","7d8","42px"
"201",201,"t1",4,813893,".",".",".",177,2,"[ 3]",348,3,"3","ROI_RIGHT ","Fixation: 279ms",".","t1.edf",812497.603,"RIGHT",".",".","correct",1395,6,48,"Trial: 60",8621894,2,4,1,3,"B jest ni?sze ni? A.",2,"fig2_7d8_42px.png","Negative","Polish","Congruent",5.17614973257383,"nor","7d8","42px"
"202",202,"t1",4,813893,".",".",".",64,3,"[ 3]",348,3,"3","ROI_RIGHT ","Fixation: 514ms",".","t1.edf",812497.603,"RIGHT",".",".","correct",1395,6,48,"Trial: 60",8621894,2,4,1,3,"B jest ni?sze ni? A.",2,"fig2_7d8_42px.png","Negative","Polish","Congruent",4.15888308335967,"nor","7d8","42px"
"203",203,"t1",4,813893,".",".",".",408,4,"[ 1]",618,2,"1","ROI_LEFT ","Fixation: 648ms",".","t1.edf",812497.603,"RIGHT",".",".","correct",1395,6,48,"Trial: 60",8621894,2,4,1,3,"B jest ni?sze ni? A.",2,"fig2_7d8_42px.png","Negative","Polish","Congruent",6.01126717440416,"nor","7d8","42px"
"204",204,"t1",4,813893,".",".",".",210,5,"[ 1]",618,2,"1","ROI_LEFT ","Fixation: 1103ms",".","t1.edf",812497.603,"RIGHT",".",".","correct",1395,6,48,"Trial: 60",8621894,2,4,1,3,"B jest ni?sze ni? A.",2,"fig2_7d8_42px.png","Negative","Polish","Congruent",5.34710753071747,"nor","7d8","42px"
"205",205,"t1",4,813893,".",".","1462",107,6,"[ 3]",348,3,"3","ROI_RIGHT ","Fixation: 1396ms","button_reponse","t1.edf",812497.603,"RIGHT","4","1462","correct",1395,6,48,"Trial: 60",8621894,2,4,1,3,"B jest ni?sze ni? A.",2,"fig2_7d8_42px.png","Negative","Polish","Congruent",4.67282883446191,"nor","7d8","42px"
"206",206,"t1",2,820580,".",".",".",296,1,"[ 2]",743,2,"2","ROI_CENTER ","Fixation: 7ms","RESET_DATA","t1.edf",818897.226,"RIGHT",".",".","correct",1682,6,49,"Trial: 61",8628287,2,2,0,1,"B jest wy?sze ni? A.",1,"fig2_9d10_28px.png","Positive","Polish","Incongruent",5.69035945432406,"nor","9d10","28px"
"207",207,"t1",2,820580,".",".",".",165,2,"[ 3]",433,3,"3","ROI_RIGHT ","Fixation: 363ms",".","t1.edf",818897.226,"RIGHT",".",".","correct",1682,6,49,"Trial: 61",8628287,2,2,0,1,"B jest wy?sze ni? A.",1,"fig2_9d10_28px.png","Positive","Polish","Incongruent",5.10594547390058,"nor","9d10","28px"
"208",208,"t1",2,820580,".",".",".",335,3,"[ 1]",335,1,"1","ROI_LEFT ","Fixation: 593ms",".","t1.edf",818897.226,"RIGHT",".",".","correct",1682,6,49,"Trial: 61",8628287,2,2,0,1,"B jest wy?sze ni? A.",1,"fig2_9d10_28px.png","Positive","Polish","Incongruent",5.81413053182507,"nor","9d10","28px"
"209",209,"t1",2,820580,".",".",".",104,4,"[ 3]",433,3,"3","ROI_RIGHT ","Fixation: 1000ms",".","t1.edf",818897.226,"RIGHT",".",".","correct",1682,6,49,"Trial: 61",8628287,2,2,0,1,"B jest wy?sze ni? A.",1,"fig2_9d10_28px.png","Positive","Polish","Incongruent",4.64439089914137,"nor","9d10","28px"
"210",210,"t1",2,820580,".",".",".",164,5,"[ 3]",433,3,"3","ROI_RIGHT ","Fixation: 1128ms",".","t1.edf",818897.226,"RIGHT",".",".","correct",1682,6,49,"Trial: 61",8628287,2,2,0,1,"B jest wy?sze ni? A.",1,"fig2_9d10_28px.png","Positive","Polish","Incongruent",5.0998664278242,"nor","9d10","28px"
"211",211,"t1",2,820580,"1756",".",".",447,6,"[ 2]",743,2,"2","ROI_CENTER ","Fixation: 1346ms","button_reponse","t1.edf",818897.226,"RIGHT","2","1756","correct",1682,6,49,"Trial: 61",8628287,2,2,0,1,"B jest wy?sze ni? A.",1,"fig2_9d10_28px.png","Positive","Polish","Incongruent",6.10255859461357,"nor","9d10","28px"
"212",212,"t1",2,826460,".",".",".",317,1,"[ 2]",580,2,"2","ROI_CENTER ","Fixation: 7ms","RESET_DATA","t1.edf",825363.485,"RIGHT",".",".","correct",1096,4,50,"Trial: 62",8634755,2,2,0,4,"B jest ni?sze ni? A.",2,"fig2_rev_1d2_42px.png","Negative","Polish","Incongruent",5.75890177387728,"rev","1d2","42px"
"213",213,"t1",2,826460,".",".",".",251,2,"[ 3]",439,2,"3","ROI_RIGHT ","Fixation: 383ms",".","t1.edf",825363.485,"RIGHT",".",".","correct",1096,4,50,"Trial: 62",8634755,2,2,0,4,"B jest ni?sze ni? A.",2,"fig2_rev_1d2_42px.png","Negative","Polish","Incongruent",5.52545293913178,"rev","1d2","42px"
"214",214,"t1",2,826460,".",".",".",263,3,"[ 2]",580,2,"2","ROI_CENTER ","Fixation: 689ms",".","t1.edf",825363.485,"RIGHT",".",".","correct",1096,4,50,"Trial: 62",8634755,2,2,0,4,"B jest ni?sze ni? A.",2,"fig2_rev_1d2_42px.png","Negative","Polish","Incongruent",5.57215403217776,"rev","1d2","42px"
"215",215,"t1",2,826460,"1168",".",".",188,4,"[ 3]",439,2,"3","ROI_RIGHT ","Fixation: 1020ms","button_reponse","t1.edf",825363.485,"RIGHT","2","1168","correct",1096,4,50,"Trial: 62",8634755,2,2,0,4,"B jest ni?sze ni? A.",2,"fig2_rev_1d2_42px.png","Negative","Polish","Incongruent",5.23644196282995,"rev","1d2","42px"
"216",216,"t1",4,831997,".",".",".",295,1,"[ 2]",428,2,"2","ROI_CENTER ","Fixation: 7ms","RESET_DATA","t1.edf",830996.49,"RIGHT",".",".","correct",1000,5,51,"Trial: 63",8640389,2,4,1,4,"B jest wy?sze ni? A.",1,"fig2_rev_9d10_42px.png","Positive","Polish","Congruent",5.68697535633982,"rev","9d10","42px"
"217",217,"t1",4,831997,".",".",".",163,2,"[ 3]",310,2,"3","ROI_RIGHT ","Fixation: 365ms",".","t1.edf",830996.49,"RIGHT",".",".","correct",1000,5,51,"Trial: 63",8640389,2,4,1,4,"B jest wy?sze ni? A.",1,"fig2_rev_9d10_42px.png","Positive","Polish","Congruent",5.09375020080676,"rev","9d10","42px"
"218",218,"t1",4,831997,".",".",".",147,3,"[ 3]",310,2,"3","ROI_RIGHT ","Fixation: 578ms",".","t1.edf",830996.49,"RIGHT",".",".","correct",1000,5,51,"Trial: 63",8640389,2,4,1,4,"B jest wy?sze ni? A.",1,"fig2_rev_9d10_42px.png","Positive","Polish","Congruent",4.99043258677874,"rev","9d10","42px"
"219",219,"t1",4,831997,".",".",".",133,4,"[ 2]",428,2,"2","ROI_CENTER ","Fixation: 784ms",".","t1.edf",830996.49,"RIGHT",".",".","correct",1000,5,51,"Trial: 63",8640389,2,4,1,4,"B jest wy?sze ni? A.",1,"fig2_rev_9d10_42px.png","Positive","Polish","Congruent",4.89034912822175,"rev","9d10","42px"
"220",220,"t1",4,831997,".",".","1071",131,5,"[ 1]",131,1,"1","ROI_LEFT ","Fixation: 976ms","button_reponse","t1.edf",830996.49,"RIGHT","4","1071","correct",1000,5,51,"Trial: 63",8640389,2,4,1,4,"B jest wy?sze ni? A.",1,"fig2_rev_9d10_42px.png","Positive","Polish","Congruent",4.87519732320115,"rev","9d10","42px"
"221",221,"t1",2,837482,".",".",".",373,1,"[ 2]",373,1,"2","ROI_CENTER ","Fixation: 7ms","RESET_DATA","t1.edf",836512.801,"RIGHT",".",".","correct",969,3,52,"Trial: 64",8645904,2,2,0,1,"B jest wy?sze ni? A.",1,"fig2_5d6_28px.png","Positive","Polish","Incongruent",5.92157841964382,"nor","5d6","28px"
"222",222,"t1",2,837482,".",".",".",148,2,"[ 3]",148,1,"3","ROI_RIGHT ","Fixation: 444ms",".","t1.edf",836512.801,"RIGHT",".",".","correct",969,3,52,"Trial: 64",8645904,2,2,0,1,"B jest wy?sze ni? A.",1,"fig2_5d6_28px.png","Positive","Polish","Incongruent",4.99721227376411,"nor","5d6","28px"
"223",223,"t1",2,837482,"1041",".",".",418,3,"[ 1]",418,1,"1","ROI_LEFT ","Fixation: 657ms","button_reponse","t1.edf",836512.801,"RIGHT","2","1041","correct",969,3,52,"Trial: 64",8645904,2,2,0,1,"B jest wy?sze ni? A.",1,"fig2_5d6_28px.png","Positive","Polish","Incongruent",6.03548143252476,"nor","5d6","28px"
"224",224,"t1",4,842958,".",".",".",231,1,"[ 2]",491,2,"2","ROI_CENTER ","Fixation: 7ms","RESET_DATA","t1.edf",842245.796,"RIGHT",".",".","correct",712,3,53,"Trial: 65",8651629,2,4,1,1,"B jest ni?sze ni? A.",2,"fig2_1d2_28px.png","Negative","Polish","Congruent",5.44241771052179,"nor","1d2","28px"
"225",225,"t1",4,842958,".",".",".",225,2,"[ 3]",225,1,"3","ROI_RIGHT ","Fixation: 293ms",".","t1.edf",842245.796,"RIGHT",".",".","correct",712,3,53,"Trial: 65",8651629,2,4,1,1,"B jest ni?sze ni? A.",2,"fig2_1d2_28px.png","Negative","Polish","Congruent",5.41610040220442,"nor","1d2","28px"
"226",226,"t1",4,842958,".",".","792",260,3,"[ 2]",491,2,"2","ROI_CENTER ","Fixation: 573ms","button_reponse","t1.edf",842245.796,"RIGHT","4","792","correct",712,3,53,"Trial: 65",8651629,2,4,1,1,"B jest ni?sze ni? A.",2,"fig2_1d2_28px.png","Negative","Polish","Congruent",5.56068163101553,"nor","1d2","28px"
"227",227,"t1",2,849055,".",".",".",271,1,"[ 2]",719,3,"2","ROI_CENTER ","Fixation: 7ms","RESET_DATA","t1.edf",847695.453,"RIGHT",".",".","correct",1359,5,54,"Trial: 66",8657077,2,2,0,4,"B jest ni?sze ni? A.",2,"fig2_rev_9d10_42px.png","Negative","Polish","Incongruent",5.6021188208797,"rev","9d10","42px"
"228",228,"t1",2,849055,".",".",".",192,2,"[ 3]",435,2,"3","ROI_RIGHT ","Fixation: 341ms",".","t1.edf",847695.453,"RIGHT",".",".","correct",1359,5,54,"Trial: 66",8657077,2,2,0,4,"B jest ni?sze ni? A.",2,"fig2_rev_9d10_42px.png","Negative","Polish","Incongruent",5.25749537202778,"rev","9d10","42px"
"229",229,"t1",2,849055,".",".",".",132,3,"[ 2]",719,3,"2","ROI_CENTER ","Fixation: 590ms",".","t1.edf",847695.453,"RIGHT",".",".","correct",1359,5,54,"Trial: 66",8657077,2,2,0,4,"B jest ni?sze ni? A.",2,"fig2_rev_9d10_42px.png","Negative","Polish","Incongruent",4.88280192258637,"rev","9d10","42px"
"230",230,"t1",2,849055,".",".",".",316,4,"[ 2]",719,3,"2","ROI_CENTER ","Fixation: 775ms",".","t1.edf",847695.453,"RIGHT",".",".","correct",1359,5,54,"Trial: 66",8657077,2,2,0,4,"B jest ni?sze ni? A.",2,"fig2_rev_9d10_42px.png","Negative","Polish","Incongruent",5.75574221358691,"rev","9d10","42px"
"231",231,"t1",2,849055,"1441",".",".",243,5,"[ 3]",435,2,"3","ROI_RIGHT ","Fixation: 1225ms","button_reponse","t1.edf",847695.453,"RIGHT","2","1441","correct",1359,5,54,"Trial: 66",8657077,2,2,0,4,"B jest ni?sze ni? A.",2,"fig2_rev_9d10_42px.png","Negative","Polish","Incongruent",5.49306144334055,"rev","9d10","42px"
"232",232,"t1",2,854650,".",".",".",321,1,"[ 2]",578,3,"2","ROI_CENTER ","Fixation: 7ms","RESET_DATA","t1.edf",853811.738,"RIGHT",".",".","correct",838,4,55,"Trial: 67",8663201,2,2,0,3,"B jest wy?sze ni? A.",1,"fig2_7d8_42px.png","Positive","Polish","Incongruent",5.77144112313002,"nor","7d8","42px"
"233",233,"t1",2,854650,".",".",".",233,2,"[ 3]",233,1,"3","ROI_RIGHT ","Fixation: 380ms",".","t1.edf",853811.738,"RIGHT",".",".","correct",838,4,55,"Trial: 67",8663201,2,2,0,3,"B jest wy?sze ni? A.",1,"fig2_7d8_42px.png","Positive","Polish","Incongruent",5.4510384535657,"nor","7d8","42px"
"234",234,"t1",2,854650,".",".",".",189,3,"[ 2]",578,3,"2","ROI_CENTER ","Fixation: 663ms",".","t1.edf",853811.738,"RIGHT",".",".","correct",838,4,55,"Trial: 67",8663201,2,2,0,3,"B jest wy?sze ni? A.",1,"fig2_7d8_42px.png","Positive","Polish","Incongruent",5.24174701505964,"nor","7d8","42px"
"235",235,"t1",2,854650,"912",".",".",68,4,"[ 2]",578,3,"2","ROI_CENTER ","Fixation: 876ms","button_reponse","t1.edf",853811.738,"RIGHT","2","912","correct",838,4,55,"Trial: 67",8663201,2,2,0,3,"B jest wy?sze ni? A.",1,"fig2_7d8_42px.png","Positive","Polish","Incongruent",4.21950770517611,"nor","7d8","42px"
"236",236,"t1",4,859999,".",".",".",366,1,"[ 2]",585,2,"2","ROI_CENTER ","Fixation: 7ms","RESET_DATA","t1.edf",859178.076,"RIGHT",".",".","correct",820,3,56,"Trial: 68",8668575,2,4,1,4,"B jest wy?sze ni? A.",1,"fig2_rev_5d6_42px.png","Positive","Polish","Congruent",5.90263333340137,"rev","5d6","42px"
"237",237,"t1",4,859999,".",".",".",216,2,"[ 3]",216,1,"3","ROI_RIGHT ","Fixation: 429ms",".","t1.edf",859178.076,"RIGHT",".",".","correct",820,3,56,"Trial: 68",8668575,2,4,1,4,"B jest wy?sze ni? A.",1,"fig2_rev_5d6_42px.png","Positive","Polish","Congruent",5.37527840768417,"rev","5d6","42px"
"238",238,"t1",4,859999,".",".","886",219,3,"[ 2]",585,2,"2","ROI_CENTER ","Fixation: 700ms","button_reponse","t1.edf",859178.076,"RIGHT","4","886","correct",820,3,56,"Trial: 68",8668575,2,4,1,4,"B jest wy?sze ni? A.",1,"fig2_rev_5d6_42px.png","Positive","Polish","Congruent",5.3890717298165,"rev","5d6","42px"
"239",239,"t1",4,866586,".",".",".",923,1,"[ 2]",1360,3,"2","ROI_CENTER ","Fixation: 7ms","RESET_DATA","t1.edf",865294.387,"RIGHT",".",".","correct",1291,3,57,"Trial: 69",8674666,2,4,1,3,"B jest ni?sze ni? A.",2,"fig2_3d4_42px.png","Negative","Polish","Congruent",6.82762923450285,"nor","3d4","42px"
"240",240,"t1",4,866586,".",".",".",398,2,"[ 2]",1360,3,"2","ROI_CENTER ","Fixation: 958ms",".","t1.edf",865294.387,"RIGHT",".",".","correct",1291,3,57,"Trial: 69",8674666,2,4,1,3,"B jest ni?sze ni? A.",2,"fig2_3d4_42px.png","Negative","Polish","Congruent",5.98645200528444,"nor","3d4","42px"
"241",241,"t1",4,866586,".",".","1382",39,3,"[ 2]",1360,3,"2","ROI_CENTER ","Fixation: 1372ms","button_reponse","t1.edf",865294.387,"RIGHT","4","1382","correct",1291,3,57,"Trial: 69",8674666,2,4,1,3,"B jest ni?sze ni? A.",2,"fig2_3d4_42px.png","Negative","Polish","Congruent",3.66356164612965,"nor","3d4","42px"
"242",242,"t1",2,872409,".",".",".",312,1,"[ 2]",312,1,"2","ROI_CENTER ","Fixation: 7ms","RESET_DATA","t1.edf",871277.335,"RIGHT",".",".","correct",1131,4,58,"Trial: 70",8680657,2,2,0,2,"B jest ni?sze ni? A.",2,"fig2_rev_7d8_28px.png","Negative","Polish","Incongruent",5.74300318780948,"rev","7d8","28px"
"243",243,"t1",2,872409,".",".",".",113,2,"[ 3]",836,3,"3","ROI_RIGHT ","Fixation: 379ms",".","t1.edf",871277.335,"RIGHT",".",".","correct",1131,4,58,"Trial: 70",8680657,2,2,0,2,"B jest ni?sze ni? A.",2,"fig2_rev_7d8_28px.png","Negative","Polish","Incongruent",4.72738781871234,"rev","7d8","28px"
"244",244,"t1",2,872409,".",".",".",460,3,"[ 3]",836,3,"3","ROI_RIGHT ","Fixation: 515ms",".","t1.edf",871277.335,"RIGHT",".",".","correct",1131,4,58,"Trial: 70",8680657,2,2,0,2,"B jest ni?sze ni? A.",2,"fig2_rev_7d8_28px.png","Negative","Polish","Incongruent",6.13122648948314,"rev","7d8","28px"
"245",245,"t1",2,872409,"1214",".",".",263,4,"[ 3]",836,3,"3","ROI_RIGHT ","Fixation: 990ms","button_reponse","t1.edf",871277.335,"RIGHT","2","1214","correct",1131,4,58,"Trial: 70",8680657,2,2,0,2,"B jest ni?sze ni? A.",2,"fig2_rev_7d8_28px.png","Negative","Polish","Incongruent",5.57215403217776,"rev","7d8","28px"
"246",246,"t1",4,878058,".",".","624",656,1,"[ 2]",656,1,"2","ROI_CENTER ","Fixation: 7ms","RESET_DATA","t1.edf",877510.283,"RIGHT","4","624","correct",547,1,59,"Trial: 71",8686896,2,4,1,4,"B jest wy?sze ni? A.",1,"fig2_rev_1d2_42px.png","Positive","Polish","Congruent",6.48616078894409,"rev","1d2","42px"
"247",247,"t1",2,883588,".",".",".",374,1,"[ 2]",583,2,"2","ROI_CENTER ","Fixation: 7ms","RESET_DATA","t1.edf",882643.314,"RIGHT",".",".","correct",944,3,60,"Trial: 72",8692030,2,2,0,4,"B jest ni?sze ni? A.",2,"fig2_rev_5d6_42px.png","Negative","Polish","Incongruent",5.92425579741453,"rev","5d6","42px"
"248",248,"t1",2,883588,".",".",".",380,2,"[ 3]",380,1,"3","ROI_RIGHT ","Fixation: 433ms",".","t1.edf",882643.314,"RIGHT",".",".","correct",944,3,60,"Trial: 72",8692030,2,2,0,4,"B jest ni?sze ni? A.",2,"fig2_rev_5d6_42px.png","Negative","Polish","Incongruent",5.94017125272043,"rev","5d6","42px"
"249",249,"t1",2,883588,"1020",".",".",209,3,"[ 2]",583,2,"2","ROI_CENTER ","Fixation: 836ms","button_reponse","t1.edf",882643.314,"RIGHT","2","1020","correct",944,3,60,"Trial: 72",8692030,2,2,0,4,"B jest ni?sze ni? A.",2,"fig2_rev_5d6_42px.png","Negative","Polish","Incongruent",5.34233425196481,"rev","5d6","42px"
"250",250,"t1",4,970286,".",".",".",612,1,"[ 2]",612,1,"2","ROI_CENTER ","Fixation: 7ms","RESET_DATA","t1.edf",969637.961,"RIGHT",".",".","correct",648,2,61,"Trial: 73",8779032,3,4,1,4,"A < B",2,"fig2_rev_3d4_42px.png","Negative","Math","Congruent",6.41673228251233,"rev","3d4","42px"
"251",251,"t1",4,970286,".",".","715",72,2,"[ 3]",72,1,"3","ROI_RIGHT ","Fixation: 681ms","button_reponse","t1.edf",969637.961,"RIGHT","4","715","correct",648,2,61,"Trial: 73",8779032,3,4,1,4,"A < B",2,"fig2_rev_3d4_42px.png","Negative","Math","Congruent",4.27666611901606,"rev","3d4","42px"
"252",252,"t1",2,975580,"875",".",".",895,1,"[ 2]",895,1,"2","ROI_CENTER ","Fixation: 7ms","RESET_DATA","t1.edf",974770.974,"RIGHT","2","875","correct",809,1,62,"Trial: 74",8784166,3,2,0,4,"A > B",1,"fig2_rev_7d8_42px.png","Positive","Math","Incongruent",6.79682371827486,"rev","7d8","42px"
"253",253,"t1",2,980538,"872",".",".",901,1,"[ 2]",901,1,"2","ROI_CENTER ","Fixation: 7ms","RESET_DATA","t1.edf",979737.356,"RIGHT","2","872","correct",800,1,63,"Trial: 75",8789127,3,2,0,3,"A < B",2,"fig2_1d2_42px.png","Negative","Math","Incongruent",6.80350525760834,"nor","1d2","42px"
"254",254,"t1",4,985395,".",".","772",793,1,"[ 2]",793,1,"2","ROI_CENTER ","Fixation: 7ms","RESET_DATA","t1.edf",984703.723,"RIGHT","4","772","correct",691,1,64,"Trial: 76",8794084,3,4,1,4,"A < B",2,"fig2_rev_7d8_42px.png","Negative","Math","Congruent",6.67582322163485,"rev","7d8","42px"
"255",255,"t1",2,992590,".",".",".",462,1,"[ 2]",822,2,"2","ROI_CENTER ","Fixation: 7ms","RESET_DATA","t1.edf",991603.292,"RIGHT",".",".","correct",986,3,65,"Trial: 77",8800971,3,2,0,3,"A < B",2,"fig2_5d6_42px.png","Negative","Math","Incongruent",6.13556489108174,"nor","5d6","42px"
"256",256,"t1",2,992590,".",".",".",165,2,"[ 3]",165,1,"3","ROI_RIGHT ","Fixation: 533ms",".","t1.edf",991603.292,"RIGHT",".",".","correct",986,3,65,"Trial: 77",8800971,3,2,0,3,"A < B",2,"fig2_5d6_42px.png","Negative","Math","Incongruent",5.10594547390058,"nor","5d6","42px"
"257",257,"t1",2,992590,"1080",".",".",360,3,"[ 2]",822,2,"2","ROI_CENTER ","Fixation: 753ms","button_reponse","t1.edf",991603.292,"RIGHT","2","1080","correct",986,3,65,"Trial: 77",8800971,3,2,0,3,"A < B",2,"fig2_5d6_42px.png","Negative","Math","Incongruent",5.88610403145016,"nor","5d6","42px"
"258",258,"t1",4,997343,".",".",".",547,1,"[ 2]",547,1,"2","ROI_CENTER ","Fixation: 7ms","RESET_DATA","t1.edf",996769.634,"RIGHT",".",".","correct",573,2,66,"Trial: 78",8806140,3,4,1,3,"A > B",1,"fig2_5d6_42px.png","Positive","Math","Congruent",6.30444880242198,"nor","5d6","42px"
"259",259,"t1",4,997343,".",".","664",94,2,"[ 1]",94,1,"1","ROI_LEFT ","Fixation: 600ms","button_reponse","t1.edf",996769.634,"RIGHT","4","664","correct",573,2,66,"Trial: 78",8806140,3,4,1,3,"A > B",1,"fig2_5d6_42px.png","Positive","Math","Congruent",4.54329478227,"nor","5d6","42px"
"260",260,"t1",2,1002713,".",".",".",592,1,"[ 2]",803,2,"2","ROI_CENTER ","Fixation: 7ms","RESET_DATA","t1.edf",1001502.669,"RIGHT",".",".","correct",1210,4,67,"Trial: 79",8810893,3,2,0,3,"A < B",2,"fig2_9d10_42px.png","Negative","Math","Incongruent",6.38350663488401,"nor","9d10","42px"
"261",261,"t1",2,1002713,".",".",".",68,2,"[ 3]",171,2,"3","ROI_RIGHT ","Fixation: 659ms",".","t1.edf",1001502.669,"RIGHT",".",".","correct",1210,4,67,"Trial: 79",8810893,3,2,0,3,"A < B",2,"fig2_9d10_42px.png","Negative","Math","Incongruent",4.21950770517611,"nor","9d10","42px"
"262",262,"t1",2,1002713,".",".",".",103,3,"[ 3]",171,2,"3","ROI_RIGHT ","Fixation: 775ms",".","t1.edf",1001502.669,"RIGHT",".",".","correct",1210,4,67,"Trial: 79",8810893,3,2,0,3,"A < B",2,"fig2_9d10_42px.png","Negative","Math","Incongruent",4.63472898822964,"nor","9d10","42px"
"263",263,"t1",2,1002713,"1281",".",".",211,4,"[ 2]",803,2,"2","ROI_CENTER ","Fixation: 942ms",".","t1.edf",1001502.669,"RIGHT",".",".","correct",1210,4,67,"Trial: 79",8810893,3,2,0,3,"A < B",2,"fig2_9d10_42px.png","Negative","Math","Incongruent",5.35185813347607,"nor","9d10","42px"
"264",264,"t1",4,1007530,".",".","642",660,1,"[ 2]",660,1,"2","ROI_CENTER ","Fixation: 7ms","RESET_DATA","t1.edf",1006952.332,"RIGHT","4","642","correct",577,1,68,"Trial: 80",8816349,3,4,1,2,"A < B",2,"fig2_rev_1d2_28px.png","Negative","Math","Congruent",6.49223983502047,"rev","1d2","28px"
"265",265,"t1",2,1012590,".",".",".",328,1,"[ 2]",328,1,"2","ROI_CENTER ","Fixation: 7ms","RESET_DATA","t1.edf",1011652.058,"RIGHT",".",".","correct",937,3,69,"Trial: 81",8821019,3,2,0,2,"A > B",1,"fig2_rev_9d10_28px.png","Positive","Math","Incongruent",5.79301360838414,"rev","9d10","28px"
"266",266,"t1",2,1012590,".",".",".",173,2,"[ 1]",173,1,"1","ROI_LEFT ","Fixation: 390ms",".","t1.edf",1011652.058,"RIGHT",".",".","correct",937,3,69,"Trial: 81",8821019,3,2,0,2,"A > B",1,"fig2_rev_9d10_28px.png","Positive","Math","Incongruent",5.15329159449778,"rev","9d10","28px"
"267",267,"t1",2,1012590,"1032",".",".",425,3,"[ 3]",425,1,"3","ROI_RIGHT ","Fixation: 639ms","button_reponse","t1.edf",1011652.058,"RIGHT","2","1032","correct",937,3,69,"Trial: 81",8821019,3,2,0,2,"A > B",1,"fig2_rev_9d10_28px.png","Positive","Math","Incongruent",6.05208916892442,"rev","9d10","28px"
"268",268,"t1",2,1017733,"848",".",".",879,1,"[ 2]",879,1,"2","ROI_CENTER ","Fixation: 7ms","RESET_DATA","t1.edf",1016968.394,"RIGHT","2","848","correct",764,1,70,"Trial: 82",8826346,3,2,0,2,"A > B",1,"fig2_rev_5d6_28px.png","Positive","Math","Incongruent",6.77878489768518,"rev","5d6","28px"
"269",269,"t1",4,1022631,".",".",".",393,1,"[ 2]",393,1,"2","ROI_CENTER ","Fixation: 7ms","RESET_DATA","t1.edf",1022134.75,"RIGHT",".",".","correct",496,2,71,"Trial: 83",8831514,3,4,1,1,"A > B",1,"fig2_3d4_28px.png","Positive","Math","Congruent",5.97380961186926,"nor","3d4","28px"
"270",270,"t1",4,1022631,".",".","578",141,2,"[ 1]",141,1,"1","ROI_LEFT ","Fixation: 459ms","button_reponse","t1.edf",1022134.75,"RIGHT","4","580","correct",496,2,71,"Trial: 83",8831514,3,4,1,1,"A > B",1,"fig2_3d4_28px.png","Positive","Math","Congruent",4.94875989037817,"nor","3d4","28px"
"271",271,"t1",4,1027875,".",".",".",435,1,"[ 2]",703,2,"2","ROI_CENTER ","Fixation: 7ms","RESET_DATA","t1.edf",1026901.106,"RIGHT",".",".","correct",973,4,72,"Trial: 84",8836295,3,4,1,3,"A > B",1,"fig2_9d10_42px.png","Positive","Math","Congruent",6.07534603108868,"nor","9d10","42px"
"272",272,"t1",4,1027875,".",".",".",268,2,"[ 2]",703,2,"2","ROI_CENTER ","Fixation: 493ms",".","t1.edf",1026901.106,"RIGHT",".",".","correct",973,4,72,"Trial: 84",8836295,3,4,1,3,"A > B",1,"fig2_9d10_42px.png","Positive","Math","Congruent",5.59098698051086,"nor","9d10","42px"
"273",273,"t1",4,1027875,".",".",".",102,3,"[ 3]",102,1,"3","ROI_RIGHT ","Fixation: 816ms",".","t1.edf",1026901.106,"RIGHT",".",".","correct",973,4,72,"Trial: 84",8836295,3,4,1,3,"A > B",1,"fig2_9d10_42px.png","Positive","Math","Congruent",4.62497281328427,"nor","9d10","42px"
"274",274,"t1",4,1027875,".",".","1041",90,4,"[ 1]",90,1,"1","ROI_LEFT ","Fixation: 980ms","button_reponse","t1.edf",1026901.106,"RIGHT","4","1041","correct",973,4,72,"Trial: 84",8836295,3,4,1,3,"A > B",1,"fig2_9d10_42px.png","Positive","Math","Congruent",4.49980967033027,"nor","9d10","42px"
"275",275,"t1",2,1033182,".",".",".",357,1,"[ 2]",803,2,"2","ROI_CENTER ","Fixation: 7ms","RESET_DATA","t1.edf",1032217.472,"RIGHT",".",".","correct",964,3,73,"Trial: 85",8841606,3,2,0,1,"A < B",2,"fig2_7d8_28px.png","Negative","Math","Incongruent",5.87773578177964,"nor","7d8","28px"
"276",276,"t1",2,1033182,".",".",".",156,2,"[ 3]",156,1,"3","ROI_RIGHT ","Fixation: 421ms",".","t1.edf",1032217.472,"RIGHT",".",".","correct",964,3,73,"Trial: 85",8841606,3,2,0,1,"A < B",2,"fig2_7d8_28px.png","Negative","Math","Incongruent",5.04985600724954,"nor","7d8","28px"
"277",277,"t1",2,1033182,"1037",".",".",446,3,"[ 2]",803,2,"2","ROI_CENTER ","Fixation: 630ms","button_reponse","t1.edf",1032217.472,"RIGHT","2","1037","correct",964,3,73,"Trial: 85",8841606,3,2,0,1,"A < B",2,"fig2_7d8_28px.png","Negative","Math","Incongruent",6.10031895202006,"nor","7d8","28px"
"278",278,"t1",4,1039306,".",".",".",635,1,"[ 2]",635,1,"2","ROI_CENTER ","Fixation: 7ms","RESET_DATA","t1.edf",1038300.406,"RIGHT",".",".","correct",1005,3,74,"Trial: 86",8847696,3,4,1,1,"A > B",1,"fig2_7d8_28px.png","Positive","Math","Congruent",6.45362499889269,"nor","7d8","28px"
"279",279,"t1",4,1039306,".",".",".",95,2,"[ 3]",95,1,"3","ROI_RIGHT ","Fixation: 696ms",".","t1.edf",1038300.406,"RIGHT",".",".","correct",1005,3,74,"Trial: 86",8847696,3,4,1,1,"A > B",1,"fig2_7d8_28px.png","Positive","Math","Congruent",4.55387689160054,"nor","7d8","28px"
"280",280,"t1",4,1039306,".",".","1070",252,3,"[ 1]",252,1,"1","ROI_LEFT ","Fixation: 850ms","button_reponse","t1.edf",1038300.406,"RIGHT","4","1072","correct",1005,3,74,"Trial: 86",8847696,3,4,1,1,"A > B",1,"fig2_7d8_28px.png","Positive","Math","Congruent",5.52942908751142,"nor","7d8","28px"
"281",281,"t1",4,1044055,".",".",".",384,1,"[ 2]",479,2,"2","ROI_CENTER ","Fixation: 7ms","RESET_DATA","t1.edf",1043350.106,"RIGHT",".",".","correct",704,3,75,"Trial: 87",8852731,3,4,1,2,"A < B",2,"fig2_rev_9d10_28px.png","Negative","Math","Congruent",5.95064255258773,"rev","9d10","28px"
"282",282,"t1",4,1044055,".",".",".",234,2,"[ 3]",234,1,"3","ROI_RIGHT ","Fixation: 440ms",".","t1.edf",1043350.106,"RIGHT",".",".","correct",704,3,75,"Trial: 87",8852731,3,4,1,2,"A < B",2,"fig2_rev_9d10_28px.png","Negative","Math","Congruent",5.4553211153577,"rev","9d10","28px"
"283",283,"t1",4,1044055,".",".","784",95,3,"[ 2]",479,2,"2","ROI_CENTER ","Fixation: 722ms","button_reponse","t1.edf",1043350.106,"RIGHT","4","784","correct",704,3,75,"Trial: 87",8852731,3,4,1,2,"A < B",2,"fig2_rev_9d10_28px.png","Negative","Math","Congruent",4.55387689160054,"rev","9d10","28px"
"284",284,"t1",2,1048853,"634",".",".",661,1,"[ 2]",661,1,"2","ROI_CENTER ","Fixation: 7ms","RESET_DATA","t1.edf",1048299.793,"RIGHT","2","634","correct",553,1,76,"Trial: 88",8857679,3,2,0,2,"A > B",1,"fig2_rev_1d2_28px.png","Positive","Math","Incongruent",6.49375383985169,"rev","1d2","28px"
"285",285,"t1",2,1053596,"803",".",".",780,1,"[ 2]",780,1,"2","ROI_CENTER ","Fixation: 63ms","SYNCTIME","t1.edf",1052866.19,"RIGHT","2","803","correct",729,1,77,"Trial: 89",8862253,3,2,0,1,"A < B",2,"fig2_3d4_28px.png","Negative","Math","Incongruent",6.65929391968364,"nor","3d4","28px"
"286",286,"t1",4,1057953,".",".",".",316,1,"[ 2]",316,1,"2","ROI_CENTER ","Fixation: 7ms","RESET_DATA","t1.edf",1057432.586,"RIGHT",".",".","correct",520,2,78,"Trial: 90",8866823,3,4,1,3,"A > B",1,"fig2_1d2_42px.png","Positive","Math","Congruent",5.75574221358691,"nor","1d2","42px"
"287",287,"t1",4,1057953,".",".","590",255,2,"[ 1]",255,1,"1","ROI_LEFT ","Fixation: 368ms","button_reponse","t1.edf",1057432.586,"RIGHT","4","590","correct",520,2,78,"Trial: 90",8866823,3,4,1,3,"A > B",1,"fig2_1d2_42px.png","Positive","Math","Congruent",5.54126354515843,"nor","1d2","42px"
"288",288,"t1",4,1062664,".",".",".",159,1,"[ 2]",858,2,"2","ROI_CENTER ","Fixation: 7ms","RESET_DATA","t1.edf",1061915.643,"RIGHT",".",".","correct",748,2,79,"Trial: 91",8871284,3,4,1,2,"A < B",2,"fig2_rev_5d6_28px.png","Negative","Math","Congruent",5.06890420222023,"rev","5d6","28px"
"289",289,"t1",4,1062664,".",".","840",699,2,"[ 2]",858,2,"2","ROI_CENTER ","Fixation: 179ms","button_reponse","t1.edf",1061915.643,"RIGHT","4","840","correct",748,2,79,"Trial: 91",8871284,3,4,1,2,"A < B",2,"fig2_rev_5d6_28px.png","Negative","Math","Congruent",6.54965074223381,"rev","5d6","28px"
"290",290,"t1",2,1067589,"778",".",".",800,1,"[ 2]",800,1,"2","ROI_CENTER ","Fixation: 7ms","RESET_DATA","t1.edf",1066881.991,"RIGHT","2","778","correct",707,1,80,"Trial: 92",8876271,3,2,0,4,"A > B",1,"fig2_rev_3d4_42px.png","Positive","Math","Incongruent",6.68461172766793,"rev","3d4","42px"
"291",291,"t10",2,421762,".",".",".",543,1,"[ 2]",543,1,"2","ROI_CENTER ","Fixation: 7ms","RESET_DATA","t10.edf",420413.846,"LEFT",".",".","correct",1348,4,1,"Trial: 13",34219518,1,2,0,1,"A jest ni?sze ni? B.",2,"fig2_3d4_28px.png","Negative","Polish","Incongruent",6.29710931993394,"nor","3d4","28px"
"292",292,"t10",2,421762,".",".",".",185,2,"[ 1]",536,2,"1","ROI_LEFT ","Fixation: 596ms",".","t10.edf",420413.846,"LEFT",".",".","correct",1348,4,1,"Trial: 13",34219518,1,2,0,1,"A jest ni?sze ni? B.",2,"fig2_3d4_28px.png","Negative","Polish","Incongruent",5.22035582507832,"nor","3d4","28px"
"293",293,"t10",2,421762,".",".",".",351,3,"[ 1]",536,2,"1","ROI_LEFT ","Fixation: 816ms",".","t10.edf",420413.846,"LEFT",".",".","correct",1348,4,1,"Trial: 13",34219518,1,2,0,1,"A jest ni?sze ni? B.",2,"fig2_3d4_28px.png","Negative","Polish","Incongruent",5.86078622346587,"nor","3d4","28px"
"294",294,"t10",2,421762,"1424",".",".",227,4,"[ 3]",227,1,"3","ROI_RIGHT ","Fixation: 1235ms","button_reponse","t10.edf",420413.846,"LEFT","2","1424","correct",1348,4,1,"Trial: 13",34219518,1,2,0,1,"A jest ni?sze ni? B.",2,"fig2_3d4_28px.png","Negative","Polish","Incongruent",5.4249500174814,"nor","3d4","28px"
"295",295,"t10",4,428060,".",".",".",369,1,"[ 2]",448,2,"2","ROI_CENTER ","Fixation: 7ms","RESET_DATA","t10.edf",427013.422,"LEFT",".",".","correct",1046,5,2,"Trial: 14",34226126,1,4,1,4,"A jest ni?sze ni? B.",2,"fig2_rev_3d4_42px.png","Negative","Polish","Congruent",5.91079664404053,"rev","3d4","42px"
"296",296,"t10",4,428060,".",".",".",148,2,"[ 1]",545,3,"1","ROI_LEFT ","Fixation: 420ms",".","t10.edf",427013.422,"LEFT",".",".","correct",1046,5,2,"Trial: 14",34226126,1,4,1,4,"A jest ni?sze ni? B.",2,"fig2_rev_3d4_42px.png","Negative","Polish","Congruent",4.99721227376411,"rev","3d4","42px"
"297",297,"t10",4,428060,".",".",".",210,3,"[ 1]",545,3,"1","ROI_LEFT ","Fixation: 592ms",".","t10.edf",427013.422,"LEFT",".",".","correct",1046,5,2,"Trial: 14",34226126,1,4,1,4,"A jest ni?sze ni? B.",2,"fig2_rev_3d4_42px.png","Negative","Polish","Congruent",5.34710753071747,"rev","3d4","42px"
"298",298,"t10",4,428060,".",".",".",187,4,"[ 1]",545,3,"1","ROI_LEFT ","Fixation: 839ms",".","t10.edf",427013.422,"LEFT",".",".","correct",1046,5,2,"Trial: 14",34226126,1,4,1,4,"A jest ni?sze ni? B.",2,"fig2_rev_3d4_42px.png","Negative","Polish","Congruent",5.23110861685459,"rev","3d4","42px"
"299",299,"t10",4,428060,".",".","1113",79,5,"[ 2]",448,2,"2","ROI_CENTER ","Fixation: 1075ms","button_reponse","t10.edf",427013.422,"LEFT","4","1113","correct",1046,5,2,"Trial: 14",34226126,1,4,1,4,"A jest ni?sze ni? B.",2,"fig2_rev_3d4_42px.png","Negative","Polish","Congruent",4.36944785246702,"rev","3d4","42px"
"300",300,"t10",2,434629,".",".",".",381,1,"[ 2]",627,2,"2","ROI_CENTER ","Fixation: 7ms","RESET_DATA","t10.edf",433379.709,"LEFT",".",".","correct",1249,4,3,"Trial: 15",34232477,1,2,0,4,"A jest wy?sze ni? B.",1,"fig2_rev_3d4_42px.png","Positive","Polish","Incongruent",5.9427993751267,"rev","3d4","42px"
"301",301,"t10",2,434629,".",".",".",433,2,"[ 1]",433,1,"1","ROI_LEFT ","Fixation: 434ms",".","t10.edf",433379.709,"LEFT",".",".","correct",1249,4,3,"Trial: 15",34232477,1,2,0,4,"A jest wy?sze ni? B.",1,"fig2_rev_3d4_42px.png","Positive","Polish","Incongruent",6.07073772800249,"rev","3d4","42px"
"302",302,"t10",2,434629,".",".",".",246,3,"[ 2]",627,2,"2","ROI_CENTER ","Fixation: 917ms",".","t10.edf",433379.709,"LEFT",".",".","correct",1249,4,3,"Trial: 15",34232477,1,2,0,4,"A jest wy?sze ni? B.",1,"fig2_rev_3d4_42px.png","Positive","Polish","Incongruent",5.50533153593236,"rev","3d4","42px"
"303",303,"t10",2,434629,"1331",".",".",160,4,"[ 3]",160,1,"3","ROI_RIGHT ","Fixation: 1209ms","button_reponse","t10.edf",433379.709,"LEFT","2","1331","correct",1249,4,3,"Trial: 15",34232477,1,2,0,4,"A jest wy?sze ni? B.",1,"fig2_rev_3d4_42px.png","Positive","Polish","Incongruent",5.07517381523383,"rev","3d4","42px"
"304",304,"t10",2,441142,".",".",".",503,1,"[ 2]",905,2,"2","ROI_CENTER ","Fixation: 7ms","RESET_DATA","t10.edf",439995.965,"LEFT",".",".","correct",1146,3,4,"Trial: 16",34239107,1,2,0,2,"A jest wy?sze ni? B.",1,"fig2_rev_1d2_28px.png","Positive","Polish","Incongruent",6.22059017009974,"rev","1d2","28px"
"305",305,"t10",2,441142,".",".",".",247,2,"[ 1]",247,1,"1","ROI_LEFT ","Fixation: 560ms",".","t10.edf",439995.965,"LEFT",".",".","correct",1146,3,4,"Trial: 16",34239107,1,2,0,2,"A jest wy?sze ni? B.",1,"fig2_rev_1d2_28px.png","Positive","Polish","Incongruent",5.50938833662798,"rev","1d2","28px"
"306",306,"t10",2,441142,"1214",".",".",402,3,"[ 2]",905,2,"2","ROI_CENTER ","Fixation: 852ms","button_reponse","t10.edf",439995.965,"LEFT","2","1214","correct",1146,3,4,"Trial: 16",34239107,1,2,0,2,"A jest wy?sze ni? B.",1,"fig2_rev_1d2_28px.png","Positive","Polish","Incongruent",5.99645208861902,"rev","1d2","28px"
"307",307,"t10",2,448305,".",".",".",482,1,"[ 2]",1241,2,"2","ROI_CENTER ","Fixation: 7ms","RESET_DATA","t10.edf",446878.877,"LEFT",".",".","incorrect",1426,5,5,"Trial: 17",34245968,1,4,1,2,"A jest ni?sze ni? B.",2,"fig2_rev_9d10_28px.png","Negative","Polish","Congruent",6.1779441140506,"rev","9d10","28px"
"308",308,"t10",2,448305,".",".",".",140,2,"[ 1]",278,2,"1","ROI_LEFT ","Fixation: 540ms",".","t10.edf",446878.877,"LEFT",".",".","incorrect",1426,5,5,"Trial: 17",34245968,1,4,1,2,"A jest ni?sze ni? B.",2,"fig2_rev_9d10_28px.png","Negative","Polish","Congruent",4.9416424226093,"rev","9d10","28px"
"309",309,"t10",2,448305,".",".",".",138,3,"[ 1]",278,2,"1","ROI_LEFT ","Fixation: 703ms",".","t10.edf",446878.877,"LEFT",".",".","incorrect",1426,5,5,"Trial: 17",34245968,1,4,1,2,"A jest ni?sze ni? B.",2,"fig2_rev_9d10_28px.png","Negative","Polish","Congruent",4.92725368515721,"rev","9d10","28px"
"310",310,"t10",2,448305,".",".",".",375,4,"[ 3]",375,1,"3","ROI_RIGHT ","Fixation: 902ms",".","t10.edf",446878.877,"LEFT",".",".","incorrect",1426,5,5,"Trial: 17",34245968,1,4,1,2,"A jest ni?sze ni? B.",2,"fig2_rev_9d10_28px.png","Negative","Polish","Congruent",5.92692602597041,"rev","9d10","28px"
"311",311,"t10",2,448305,"1516",".",".",759,5,"[ 2]",1241,2,"2","ROI_CENTER ","Fixation: 1334ms","button_reponse","t10.edf",446878.877,"LEFT","2","1516","incorrect",1426,5,5,"Trial: 17",34245968,1,4,1,2,"A jest ni?sze ni? B.",2,"fig2_rev_9d10_28px.png","Negative","Polish","Congruent",6.63200177739563,"rev","9d10","28px"
"312",312,"t10",2,456449,".",".",".",482,1,"[ 2]",810,2,"2","ROI_CENTER ","Fixation: 7ms","RESET_DATA","t10.edf",454828.386,"LEFT",".",".","correct",1620,5,6,"Trial: 18",34253930,1,2,0,1,"A jest ni?sze ni? B.",2,"fig2_7d8_28px.png","Negative","Polish","Incongruent",6.1779441140506,"nor","7d8","28px"
"313",313,"t10",2,456449,".",".",".",262,2,"[ 1]",537,2,"1","ROI_LEFT ","Fixation: 532ms",".","t10.edf",454828.386,"LEFT",".",".","correct",1620,5,6,"Trial: 18",34253930,1,2,0,1,"A jest ni?sze ni? B.",2,"fig2_7d8_28px.png","Negative","Polish","Incongruent",5.5683445037611,"nor","7d8","28px"
"314",314,"t10",2,456449,".",".",".",328,3,"[ 2]",810,2,"2","ROI_CENTER ","Fixation: 838ms",".","t10.edf",454828.386,"LEFT",".",".","correct",1620,5,6,"Trial: 18",34253930,1,2,0,1,"A jest ni?sze ni? B.",2,"fig2_7d8_28px.png","Negative","Polish","Incongruent",5.79301360838414,"nor","7d8","28px"
"315",315,"t10",2,456449,".",".",".",192,4,"[ 3]",192,1,"3","ROI_RIGHT ","Fixation: 1211ms",".","t10.edf",454828.386,"LEFT",".",".","correct",1620,5,6,"Trial: 18",34253930,1,2,0,1,"A jest ni?sze ni? B.",2,"fig2_7d8_28px.png","Negative","Polish","Incongruent",5.25749537202778,"nor","7d8","28px"
"316",316,"t10",2,456449,"1698",".",".",275,5,"[ 1]",537,2,"1","ROI_LEFT ","Fixation: 1456ms","button_reponse","t10.edf",454828.386,"LEFT","2","1698","correct",1620,5,6,"Trial: 18",34253930,1,2,0,1,"A jest ni?sze ni? B.",2,"fig2_7d8_28px.png","Negative","Polish","Incongruent",5.61677109766657,"nor","7d8","28px"
"317",317,"t10",4,463076,".",".",".",454,1,"[ 2]",899,2,"2","ROI_CENTER ","Fixation: 7ms","RESET_DATA","t10.edf",461877.943,"LEFT",".",".","correct",1198,3,7,"Trial: 19",34260988,1,4,1,1,"A jest wy?sze ni? B.",1,"fig2_7d8_28px.png","Positive","Polish","Congruent",6.11809719804135,"nor","7d8","28px"
"318",318,"t10",4,463076,".",".",".",309,2,"[ 1]",309,1,"1","ROI_LEFT ","Fixation: 507ms",".","t10.edf",461877.943,"LEFT",".",".","correct",1198,3,7,"Trial: 19",34260988,1,4,1,1,"A jest wy?sze ni? B.",1,"fig2_7d8_28px.png","Positive","Polish","Congruent",5.73334127689775,"nor","7d8","28px"
"319",319,"t10",4,463076,".",".","1267",445,3,"[ 2]",899,2,"2","ROI_CENTER ","Fixation: 860ms","button_reponse","t10.edf",461877.943,"LEFT","4","1267","correct",1198,3,7,"Trial: 19",34260988,1,4,1,1,"A jest wy?sze ni? B.",1,"fig2_7d8_28px.png","Positive","Polish","Congruent",6.09807428216624,"nor","7d8","28px"
"320",320,"t10",4,469418,".",".",".",440,1,"[ 2]",641,2,"2","ROI_CENTER ","Fixation: 7ms","RESET_DATA","t10.edf",468377.551,"LEFT",".",".","correct",1040,4,8,"Trial: 20",34267466,1,4,1,3,"A jest wy?sze ni? B.",1,"fig2_1d2_42px.png","Positive","Polish","Congruent",6.08677472691231,"nor","1d2","42px"
"321",321,"t10",4,469418,".",".",".",229,2,"[ 1]",379,2,"1","ROI_LEFT ","Fixation: 490ms",".","t10.edf",468377.551,"LEFT",".",".","correct",1040,4,8,"Trial: 20",34267466,1,4,1,3,"A jest wy?sze ni? B.",1,"fig2_1d2_42px.png","Positive","Polish","Congruent",5.43372200355424,"nor","1d2","42px"
"322",322,"t10",4,469418,".",".",".",201,3,"[ 2]",641,2,"2","ROI_CENTER ","Fixation: 764ms",".","t10.edf",468377.551,"LEFT",".",".","correct",1040,4,8,"Trial: 20",34267466,1,4,1,3,"A jest wy?sze ni? B.",1,"fig2_1d2_42px.png","Positive","Polish","Congruent",5.30330490805908,"nor","1d2","42px"
"323",323,"t10",4,469418,".",".","1131",150,4,"[ 1]",379,2,"1","ROI_LEFT ","Fixation: 1010ms","button_reponse","t10.edf",468377.551,"LEFT","4","1131","correct",1040,4,8,"Trial: 20",34267466,1,4,1,3,"A jest wy?sze ni? B.",1,"fig2_1d2_42px.png","Positive","Polish","Congruent",5.01063529409626,"nor","1d2","42px"
"324",324,"t10",2,476118,".",".",".",501,1,"[ 2]",1078,3,"2","ROI_CENTER ","Fixation: 7ms","RESET_DATA","t10.edf",474343.866,"LEFT",".",".","correct",1774,6,9,"Trial: 21",34273430,1,2,0,2,"A jest wy?sze ni? B.",1,"fig2_rev_9d10_28px.png","Positive","Polish","Incongruent",6.21660610108486,"rev","9d10","28px"
"325",325,"t10",2,476118,".",".",".",196,2,"[ 1]",196,1,"1","ROI_LEFT ","Fixation: 554ms",".","t10.edf",474343.866,"LEFT",".",".","correct",1774,6,9,"Trial: 21",34273430,1,2,0,2,"A jest wy?sze ni? B.",1,"fig2_rev_9d10_28px.png","Positive","Polish","Incongruent",5.27811465923052,"rev","9d10","28px"
"326",326,"t10",2,476118,".",".",".",247,3,"[ 3]",379,2,"3","ROI_RIGHT ","Fixation: 803ms",".","t10.edf",474343.866,"LEFT",".",".","correct",1774,6,9,"Trial: 21",34273430,1,2,0,2,"A jest wy?sze ni? B.",1,"fig2_rev_9d10_28px.png","Positive","Polish","Incongruent",5.50938833662798,"rev","9d10","28px"
"327",327,"t10",2,476118,".",".",".",132,4,"[ 3]",379,2,"3","ROI_RIGHT ","Fixation: 1092ms",".","t10.edf",474343.866,"LEFT",".",".","correct",1774,6,9,"Trial: 21",34273430,1,2,0,2,"A jest wy?sze ni? B.",1,"fig2_rev_9d10_28px.png","Positive","Polish","Incongruent",4.88280192258637,"rev","9d10","28px"
"328",328,"t10",2,476118,".",".",".",193,5,"[ 2]",1078,3,"2","ROI_CENTER ","Fixation: 1286ms",".","t10.edf",474343.866,"LEFT",".",".","correct",1774,6,9,"Trial: 21",34273430,1,2,0,2,"A jest wy?sze ni? B.",1,"fig2_rev_9d10_28px.png","Positive","Polish","Incongruent",5.26269018890489,"rev","9d10","28px"
"329",329,"t10",2,476118,"1867",".",".",384,6,"[ 2]",1078,3,"2","ROI_CENTER ","Fixation: 1512ms","button_reponse","t10.edf",474343.866,"LEFT","2","1867","correct",1774,6,9,"Trial: 21",34273430,1,2,0,2,"A jest wy?sze ni? B.",1,"fig2_rev_9d10_28px.png","Positive","Polish","Incongruent",5.95064255258773,"rev","9d10","28px"
"330",330,"t10",2,482317,"950",".",".",973,1,"[ 2]",973,1,"2","ROI_CENTER ","Fixation: 7ms","RESET_DATA","t10.edf",481460.094,"LEFT","2","950","correct",856,1,10,"Trial: 22",34280546,1,2,0,3,"A jest ni?sze ni? B.",2,"fig2_9d10_42px.png","Negative","Polish","Incongruent",6.880384082186,"nor","9d10","42px"
"331",331,"t10",4,488021,".",".",".",298,1,"[ 2]",1084,3,"2","ROI_CENTER ","Fixation: 7ms","RESET_DATA","t10.edf",486776.43,"LEFT",".",".","correct",1244,4,11,"Trial: 23",34285875,1,4,1,3,"A jest wy?sze ni? B.",1,"fig2_5d6_42px.png","Positive","Polish","Congruent",5.6970934865054,"nor","5d6","42px"
"332",332,"t10",4,488021,".",".",".",131,2,"[ 1]",131,1,"1","ROI_LEFT ","Fixation: 348ms",".","t10.edf",486776.43,"LEFT",".",".","correct",1244,4,11,"Trial: 23",34285875,1,4,1,3,"A jest wy?sze ni? B.",1,"fig2_5d6_42px.png","Positive","Polish","Congruent",4.87519732320115,"nor","5d6","42px"
"333",333,"t10",4,488021,".",".",".",269,3,"[ 2]",1084,3,"2","ROI_CENTER ","Fixation: 528ms",".","t10.edf",486776.43,"LEFT",".",".","correct",1244,4,11,"Trial: 23",34285875,1,4,1,3,"A jest wy?sze ni? B.",1,"fig2_5d6_42px.png","Positive","Polish","Congruent",5.59471137960184,"nor","5d6","42px"
"334",334,"t10",4,488021,".",".","1325",517,4,"[ 2]",1084,3,"2","ROI_CENTER ","Fixation: 818ms","button_reponse","t10.edf",486776.43,"LEFT","4","1325","correct",1244,4,11,"Trial: 23",34285875,1,4,1,3,"A jest wy?sze ni? B.",1,"fig2_5d6_42px.png","Positive","Polish","Congruent",6.24804287450843,"nor","5d6","42px"
"335",335,"t10",4,493320,".",".",".",459,1,"[ 2]",853,3,"2","ROI_CENTER ","Fixation: 7ms","RESET_DATA","t10.edf",492259.432,"LEFT",".",".","correct",1060,4,12,"Trial: 24",34291346,1,4,1,4,"A jest ni?sze ni? B.",2,"fig2_rev_7d8_42px.png","Negative","Polish","Congruent",6.12905021006055,"rev","7d8","42px"
"336",336,"t10",4,493320,".",".",".",268,2,"[ 2]",853,3,"2","ROI_CENTER ","Fixation: 475ms",".","t10.edf",492259.432,"LEFT",".",".","correct",1060,4,12,"Trial: 24",34291346,1,4,1,4,"A jest ni?sze ni? B.",2,"fig2_rev_7d8_42px.png","Negative","Polish","Congruent",5.59098698051086,"rev","7d8","42px"
"337",337,"t10",4,493320,".",".",".",216,3,"[ 1]",216,1,"1","ROI_LEFT ","Fixation: 792ms",".","t10.edf",492259.432,"LEFT",".",".","correct",1060,4,12,"Trial: 24",34291346,1,4,1,4,"A jest ni?sze ni? B.",2,"fig2_rev_7d8_42px.png","Negative","Polish","Congruent",5.37527840768417,"rev","7d8","42px"
