"","subject","CURRENT_SAC_AMPLITUDE","CURRENT_SAC_DIRECTION","CURRENT_SAC_DURATION","CURRENT_SAC_END_INTEREST_AREAS","CURRENT_SAC_END_INTEREST_AREA_INDEX","CURRENT_SAC_END_INTEREST_AREA_LABEL","CURRENT_SAC_INDEX","CURRENT_SAC_LABEL","CURRENT_SAC_MSG_TEXT_1","CURRENT_SAC_START_INTEREST_AREAS","CURRENT_SAC_START_INTEREST_AREA_INDEX","CURRENT_SAC_START_INTEREST_AREA_LABEL","DATA_FILE","TRIAL_INDEX","TRIAL_LABEL","TRIAL_SACCADE_TOTAL","BUTTON_PRESSED.1.","BUTTON_PRESS_TIME.1.","DISPLAY_ON_TIME.1.","RESPONSE_TIME.1.","RESPONSE_ACCURACY.1.","visual","pic_category","correct","sentence","sentence_type","block","button_expected","polarity","language","congruence","Imagewinner","Ratio","PxSize","logCURRENT_SAC_DURATION"
"1","t1",6.81,"RIGHT",53,"[ 3]",3,"ROI_RIGHT ",1,"Saccade: 377ms",".","[ 2]",2,"ROI_CENTER ","t1.edf",1,"Trial: 13",4,2,392297,391056.812,1240,"correct","fig2_rev_3d4_28px.png",2,"0","B < A","2",4,2,"Negative","Math","Incongruent","rev","3d4","28px",3.97029191355212
"2","t1",13.37,"LEFT",71,"[ 1]",1,"ROI_LEFT ",2,"Saccade: 538ms",".","[ 3]",3,"ROI_RIGHT ","t1.edf",1,"Trial: 13",4,2,392297,391056.812,1240,"correct","fig2_rev_3d4_28px.png",2,"0","B < A","2",4,2,"Negative","Math","Incongruent","rev","3d4","28px",4.26267987704132
"3","t1",16.31,"RIGHT",154,"[ 3]",3,"ROI_RIGHT ",3,"Saccade: 844ms",".","[ 1]",1,"ROI_LEFT ","t1.edf",1,"Trial: 13",4,2,392297,391056.812,1240,"correct","fig2_rev_3d4_28px.png",2,"0","B < A","2",4,2,"Negative","Math","Incongruent","rev","3d4","28px",5.03695260241363
"4","t1",5.74,"UP",52,"[ 3]",3,"ROI_RIGHT ",4,"Saccade: 1229ms",".","[ 3]",3,"ROI_RIGHT ","t1.edf",1,"Trial: 13",4,2,392297,391056.812,1240,"correct","fig2_rev_3d4_28px.png",2,"0","B < A","2",4,2,"Negative","Math","Incongruent","rev","3d4","28px",3.95124371858143
"5","t1",0.44,".",127,"[ 2]",2,"ROI_CENTER ",1,"Saccade: 123ms",".","[ 2]",2,"ROI_CENTER ","t1.edf",2,"Trial: 14",5,2,399323,397873.051,1449,"correct","fig2_7d8_42px.png",3,"0","B > A","1",4,2,"Positive","Math","Incongruent","nor","7d8","42px",4.84418708645859
"6","t1",7.41,"RIGHT",53,"[ 3]",3,"ROI_RIGHT ",2,"Saccade: 404ms",".","[ 2]",2,"ROI_CENTER ","t1.edf",2,"Trial: 14",5,2,399323,397873.051,1449,"correct","fig2_7d8_42px.png",3,"0","B > A","1",4,2,"Positive","Math","Incongruent","nor","7d8","42px",3.97029191355212
"7","t1",2.47,"RIGHT",26,"[ 3]",3,"ROI_RIGHT ",3,"Saccade: 599ms",".","[ 3]",3,"ROI_RIGHT ","t1.edf",2,"Trial: 14",5,2,399323,397873.051,1449,"correct","fig2_7d8_42px.png",3,"0","B > A","1",4,2,"Positive","Math","Incongruent","nor","7d8","42px",3.25809653802148
"8","t1",15.89,"LEFT",67,"[ 1]",1,"ROI_LEFT ",4,"Saccade: 897ms",".","[ 3]",3,"ROI_RIGHT ","t1.edf",2,"Trial: 14",5,2,399323,397873.051,1449,"correct","fig2_7d8_42px.png",3,"0","B > A","1",4,2,"Positive","Math","Incongruent","nor","7d8","42px",4.20469261939097
"9","t1",2.25,"UP",30,"[ 1]",1,"ROI_LEFT ",5,"Saccade: 1390ms",".","[ 1]",1,"ROI_LEFT ","t1.edf",2,"Trial: 14",5,2,399323,397873.051,1449,"correct","fig2_7d8_42px.png",3,"0","B > A","1",4,2,"Positive","Math","Incongruent","nor","7d8","42px",3.40119738166216
"10","t1",11.57,"LEFT",46,"[ 1]",1,"ROI_LEFT ",1,"Saccade: 302ms",".","[ 2]",2,"ROI_CENTER ","t1.edf",3,"Trial: 15",3,4,405554,404705.993,848,"correct","fig2_3d4_42px.png",3,"1","B < A","2",4,4,"Negative","Math","Congruent","nor","3d4","42px",3.8286413964891
"11","t1",0.54,"LEFT",16,"[ 1]",1,"ROI_LEFT ",2,"Saccade: 591ms",".","[ 1]",1,"ROI_LEFT ","t1.edf",3,"Trial: 15",3,4,405554,404705.993,848,"correct","fig2_3d4_42px.png",3,"1","B < A","2",4,4,"Negative","Math","Congruent","nor","3d4","42px",2.77258872223978
"12","t1",9.43,"UP",60,"[ 1]",1,"ROI_LEFT ",3,"Saccade: 767ms",".","[ 1]",1,"ROI_LEFT ","t1.edf",3,"Trial: 15",3,4,405554,404705.993,848,"correct","fig2_3d4_42px.png",3,"1","B < A","2",4,4,"Negative","Math","Congruent","nor","3d4","42px",4.0943445622221
"13","t1",10.9,"LEFT",60,"[ 1]",1,"ROI_LEFT ",1,"Saccade: 620ms",".","[ 2]",2,"ROI_CENTER ","t1.edf",4,"Trial: 16",2,4,412175,411255.574,919,"correct","fig2_1d2_28px.png",1,"1","B < A","2",4,4,"Negative","Math","Congruent","nor","1d2","28px",4.0943445622221
"14","t1",7.04,"UP",55,"[ 1]",1,"ROI_LEFT ",2,"Saccade: 885ms",".","[ 1]",1,"ROI_LEFT ","t1.edf",4,"Trial: 16",2,4,412175,411255.574,919,"correct","fig2_1d2_28px.png",1,"1","B < A","2",4,4,"Negative","Math","Congruent","nor","1d2","28px",4.00733318523247
"15","t1",8.8,"LEFT",56,"[ 1]",1,"ROI_LEFT ",1,"Saccade: 310ms",".","[ 2]",2,"ROI_CENTER ","t1.edf",5,"Trial: 17",2,2,418099,417188.544,910,"correct","fig2_rev_5d6_42px.png",4,"0","B < A","2",4,2,"Negative","Math","Incongruent","rev","5d6","42px",4.02535169073515
"16","t1",13.63,"RIGHT",69,"[ 3]",3,"ROI_RIGHT ",2,"Saccade: 667ms",".","[ 1]",1,"ROI_LEFT ","t1.edf",5,"Trial: 17",2,2,418099,417188.544,910,"correct","fig2_rev_5d6_42px.png",4,"0","B < A","2",4,2,"Negative","Math","Incongruent","rev","5d6","42px",4.23410650459726
"17","t1",9.89,"RIGHT",63,"[ 3]",3,"ROI_RIGHT ",1,"Saccade: 513ms",".","[ 2]",2,"ROI_CENTER ","t1.edf",6,"Trial: 18",4,4,424789,423254.845,1534,"correct","fig2_rev_5d6_42px.png",4,"1","B > A","1",4,4,"Positive","Math","Congruent","rev","5d6","42px",4.14313472639153
"18","t1",0.85,"LEFT",23,"[ 3]",3,"ROI_RIGHT ",2,"Saccade: 1117ms",".","[ 3]",3,"ROI_RIGHT ","t1.edf",6,"Trial: 18",4,4,424789,423254.845,1534,"correct","fig2_rev_5d6_42px.png",4,"1","B > A","1",4,4,"Positive","Math","Congruent","rev","5d6","42px",3.13549421592915
"19","t1",1.01,"RIGHT",23,"[ 3]",3,"ROI_RIGHT ",3,"Saccade: 1350ms",".","[ 3]",3,"ROI_RIGHT ","t1.edf",6,"Trial: 18",4,4,424789,423254.845,1534,"correct","fig2_rev_5d6_42px.png",4,"1","B > A","1",4,4,"Positive","Math","Congruent","rev","5d6","42px",3.13549421592915
"20","t1",16.1,"LEFT",74,"[ 1]",1,"ROI_LEFT ",4,"Saccade: 1499ms",".","[ 3]",3,"ROI_RIGHT ","t1.edf",6,"Trial: 18",4,4,424789,423254.845,1534,"correct","fig2_rev_5d6_42px.png",4,"1","B > A","1",4,4,"Positive","Math","Congruent","rev","5d6","42px",4.30406509320417
"21","t1",8.4,"RIGHT",56,"[ 3]",3,"ROI_RIGHT ",1,"Saccade: 487ms",".","[ 2]",2,"ROI_CENTER ","t1.edf",7,"Trial: 19",3,4,430567,429704.426,862,"correct","fig2_rev_9d10_42px.png",4,"1","B > A","1",4,4,"Positive","Math","Congruent","rev","9d10","42px",4.02535169073515
"22","t1",2.72,"DOWN",36,"[ 3]",3,"ROI_RIGHT ",2,"Saccade: 714ms",".","[ 3]",3,"ROI_RIGHT ","t1.edf",7,"Trial: 19",3,4,430567,429704.426,862,"correct","fig2_rev_9d10_42px.png",4,"1","B > A","1",4,4,"Positive","Math","Congruent","rev","9d10","42px",3.58351893845611
"23","t1",14.59,"UP",61,"[ ]",NA,".",3,"Saccade: 873ms","button_reponse","[ 3]",3,"ROI_RIGHT ","t1.edf",7,"Trial: 19",3,4,430567,429704.426,862,"correct","fig2_rev_9d10_42px.png",4,"1","B > A","1",4,4,"Positive","Math","Congruent","rev","9d10","42px",4.11087386417331
"24","t1",2.01,"RIGHT",23,"[ 2]",2,"ROI_CENTER ",1,"Saccade: 885ms",".","[ 2]",2,"ROI_CENTER ","t1.edf",8,"Trial: 20",1,2,437097,435987.394,1109,"correct","fig2_rev_9d10_42px.png",4,"0","B < A","2",4,2,"Negative","Math","Incongruent","rev","9d10","42px",3.13549421592915
"25","t1",8.48,"RIGHT",71,"[ 3]",3,"ROI_RIGHT ",1,"Saccade: 568ms",".","[ 2]",2,"ROI_CENTER ","t1.edf",9,"Trial: 21",6,2,443824,441737.036,2086,"correct","fig2_rev_7d8_28px.png",2,"0","B < A","2",4,2,"Negative","Math","Incongruent","rev","7d8","28px",4.26267987704132
"26","t1",2.65,"DOWN",48,"[ 3]",3,"ROI_RIGHT ",2,"Saccade: 785ms",".","[ 3]",3,"ROI_RIGHT ","t1.edf",9,"Trial: 21",6,2,443824,441737.036,2086,"correct","fig2_rev_7d8_28px.png",2,"0","B < A","2",4,2,"Negative","Math","Incongruent","rev","7d8","28px",3.87120101090789
"27","t1",6.99,"LEFT",55,"[ 3]",3,"ROI_RIGHT ",3,"Saccade: 1018ms",".","[ 3]",3,"ROI_RIGHT ","t1.edf",9,"Trial: 21",6,2,443824,441737.036,2086,"correct","fig2_rev_7d8_28px.png",2,"0","B < A","2",4,2,"Negative","Math","Incongruent","rev","7d8","28px",4.00733318523247
"28","t1",0.8,"LEFT",20,"[ 2]",2,"ROI_CENTER ",4,"Saccade: 1421ms",".","[ 3]",3,"ROI_RIGHT ","t1.edf",9,"Trial: 21",6,2,443824,441737.036,2086,"correct","fig2_rev_7d8_28px.png",2,"0","B < A","2",4,2,"Negative","Math","Incongruent","rev","7d8","28px",2.99573227355399
"29","t1",0.59,"LEFT",12,"[ 2]",2,"ROI_CENTER ",5,"Saccade: 1743ms",".","[ 2]",2,"ROI_CENTER ","t1.edf",9,"Trial: 21",6,2,443824,441737.036,2086,"correct","fig2_rev_7d8_28px.png",2,"0","B < A","2",4,2,"Negative","Math","Incongruent","rev","7d8","28px",2.484906649788
"30","t1",0.29,".",7,"[ 2]",2,"ROI_CENTER ",6,"Saccade: 2047ms",".","[ 2]",2,"ROI_CENTER ","t1.edf",9,"Trial: 21",6,2,443824,441737.036,2086,"correct","fig2_rev_7d8_28px.png",2,"0","B < A","2",4,2,"Negative","Math","Incongruent","rev","7d8","28px",1.94591014905531
"31","t1",8.51,"RIGHT",55,"[ 3]",3,"ROI_RIGHT ",1,"Saccade: 302ms",".","[ 2]",2,"ROI_CENTER ","t1.edf",10,"Trial: 22",3,4,449331,448453.295,877,"correct","fig2_rev_3d4_28px.png",2,"1","B > A","1",4,4,"Positive","Math","Congruent","rev","3d4","28px",4.00733318523247
"32","t1",2.06,"RIGHT",25,"[ 3]",3,"ROI_RIGHT ",2,"Saccade: 558ms",".","[ 3]",3,"ROI_RIGHT ","t1.edf",10,"Trial: 22",3,4,449331,448453.295,877,"correct","fig2_rev_3d4_28px.png",2,"1","B > A","1",4,4,"Positive","Math","Congruent","rev","3d4","28px",3.2188758248682
"33","t1",8.99,"LEFT",60,"[ 2]",2,"ROI_CENTER ",3,"Saccade: 871ms",".","[ 3]",3,"ROI_RIGHT ","t1.edf",10,"Trial: 22",3,4,449331,448453.295,877,"correct","fig2_rev_3d4_28px.png",2,"1","B > A","1",4,4,"Positive","Math","Congruent","rev","3d4","28px",4.0943445622221
"34","t1",1.53,"RIGHT",37,"[ 2]",2,"ROI_CENTER ",1,"Saccade: 432ms",".","[ 2]",2,"ROI_CENTER ","t1.edf",11,"Trial: 23",6,2,455480,453769.639,1710,"correct","fig2_5d6_28px.png",1,"0","B > A","1",4,2,"Positive","Math","Incongruent","nor","5d6","28px",3.61091791264422
"35","t1",7.46,"RIGHT",56,"[ 3]",3,"ROI_RIGHT ",2,"Saccade: 859ms",".","[ 2]",2,"ROI_CENTER ","t1.edf",11,"Trial: 23",6,2,455480,453769.639,1710,"correct","fig2_5d6_28px.png",1,"0","B > A","1",4,2,"Positive","Math","Incongruent","nor","5d6","28px",4.02535169073515
"36","t1",16.93,"LEFT",61,"[ 1]",1,"ROI_LEFT ",3,"Saccade: 1009ms",".","[ 3]",3,"ROI_RIGHT ","t1.edf",11,"Trial: 23",6,2,455480,453769.639,1710,"correct","fig2_5d6_28px.png",1,"0","B > A","1",4,2,"Positive","Math","Incongruent","nor","5d6","28px",4.11087386417331
"37","t1",16.57,"RIGHT",77,"[ 3]",3,"ROI_RIGHT ",4,"Saccade: 1242ms",".","[ 1]",1,"ROI_LEFT ","t1.edf",11,"Trial: 23",6,2,455480,453769.639,1710,"correct","fig2_5d6_28px.png",1,"0","B > A","1",4,2,"Positive","Math","Incongruent","nor","5d6","28px",4.34380542185368
"38","t1",1.68,"RIGHT",33,"[ 3]",3,"ROI_RIGHT ",5,"Saccade: 1439ms",".","[ 3]",3,"ROI_RIGHT ","t1.edf",11,"Trial: 23",6,2,455480,453769.639,1710,"correct","fig2_5d6_28px.png",1,"0","B > A","1",4,2,"Positive","Math","Incongruent","nor","5d6","28px",3.49650756146648
"39","t1",9.77,"LEFT",48,"[ 2]",2,"ROI_CENTER ",6,"Saccade: 1719ms",".","[ 3]",3,"ROI_RIGHT ","t1.edf",11,"Trial: 23",6,2,455480,453769.639,1710,"correct","fig2_5d6_28px.png",1,"0","B > A","1",4,2,"Positive","Math","Incongruent","nor","5d6","28px",3.87120101090789
"40","t1",8.88,"RIGHT",61,"[ 3]",3,"ROI_RIGHT ",1,"Saccade: 419ms",".","[ 2]",2,"ROI_CENTER ","t1.edf",12,"Trial: 24",7,2,461771,460019.231,1751,"correct","fig2_9d10_28px.png",1,"0","B > A","1",4,2,"Positive","Math","Incongruent","nor","9d10","28px",4.11087386417331
"41","t1",1.82,"RIGHT",22,"[ 3]",3,"ROI_RIGHT ",2,"Saccade: 604ms",".","[ 3]",3,"ROI_RIGHT ","t1.edf",12,"Trial: 24",7,2,461771,460019.231,1751,"correct","fig2_9d10_28px.png",1,"0","B > A","1",4,2,"Positive","Math","Incongruent","nor","9d10","28px",3.09104245335832
"42","t1",4.12,"UP",53,"[ 3]",3,"ROI_RIGHT ",3,"Saccade: 776ms",".","[ 3]",3,"ROI_RIGHT ","t1.edf",12,"Trial: 24",7,2,461771,460019.231,1751,"correct","fig2_9d10_28px.png",1,"0","B > A","1",4,2,"Positive","Math","Incongruent","nor","9d10","28px",3.97029191355212
"43","t1",14.03,"LEFT",68,"[ 1]",1,"ROI_LEFT ",4,"Saccade: 865ms",".","[ 3]",3,"ROI_RIGHT ","t1.edf",12,"Trial: 24",7,2,461771,460019.231,1751,"correct","fig2_9d10_28px.png",1,"0","B > A","1",4,2,"Positive","Math","Incongruent","nor","9d10","28px",4.21950770517611
"44","t1",14.89,"RIGHT",77,"[ 3]",3,"ROI_RIGHT ",5,"Saccade: 1101ms",".","[ 1]",1,"ROI_LEFT ","t1.edf",12,"Trial: 24",7,2,461771,460019.231,1751,"correct","fig2_9d10_28px.png",1,"0","B > A","1",4,2,"Positive","Math","Incongruent","nor","9d10","28px",4.34380542185368
"45","t1",0.76,"RIGHT",22,"[ 3]",3,"ROI_RIGHT ",6,"Saccade: 1337ms",".","[ 3]",3,"ROI_RIGHT ","t1.edf",12,"Trial: 24",7,2,461771,460019.231,1751,"correct","fig2_9d10_28px.png",1,"0","B > A","1",4,2,"Positive","Math","Incongruent","nor","9d10","28px",3.09104245335832
"46","t1",7.58,"LEFT",56,"[ 2]",2,"ROI_CENTER ",7,"Saccade: 1635ms",".","[ 3]",3,"ROI_RIGHT ","t1.edf",12,"Trial: 24",7,2,461771,460019.231,1751,"correct","fig2_9d10_28px.png",1,"0","B > A","1",4,2,"Positive","Math","Incongruent","nor","9d10","28px",4.02535169073515
"47","t1",3.88,"LEFT",34,"[ 1]",1,"ROI_LEFT ",1,"Saccade: 391ms",".","[ 2]",2,"ROI_CENTER ","t1.edf",13,"Trial: 25",5,4,469192,468202.077,989,"correct","fig2_7d8_42px.png",3,"1","B < A","2",4,4,"Negative","Math","Congruent","nor","7d8","42px",3.52636052461616
"48","t1",6.29,"LEFT",56,"[ 1]",1,"ROI_LEFT ",2,"Saccade: 608ms",".","[ 1]",1,"ROI_LEFT ","t1.edf",13,"Trial: 25",5,4,469192,468202.077,989,"correct","fig2_7d8_42px.png",3,"1","B < A","2",4,4,"Negative","Math","Congruent","nor","7d8","42px",4.02535169073515
"49","t1",17.3,"RIGHT",72,"[ 3]",3,"ROI_RIGHT ",3,"Saccade: 760ms",".","[ 1]",1,"ROI_LEFT ","t1.edf",13,"Trial: 25",5,4,469192,468202.077,989,"correct","fig2_7d8_42px.png",3,"1","B < A","2",4,4,"Negative","Math","Congruent","nor","7d8","42px",4.27666611901606
"50","t1",0.78,"RIGHT",21,"[ 3]",3,"ROI_RIGHT ",4,"Saccade: 925ms",".","[ 3]",3,"ROI_RIGHT ","t1.edf",13,"Trial: 25",5,4,469192,468202.077,989,"correct","fig2_7d8_42px.png",3,"1","B < A","2",4,4,"Negative","Math","Congruent","nor","7d8","42px",3.04452243772342
"51","t1",12.96,"LEFT",57,"[ 1]",1,"ROI_LEFT ",5,"Saccade: 1033ms","button_reponse","[ 3]",3,"ROI_RIGHT ","t1.edf",13,"Trial: 25",5,4,469192,468202.077,989,"correct","fig2_7d8_42px.png",3,"1","B < A","2",4,4,"Negative","Math","Congruent","nor","7d8","42px",4.04305126783455
"52","t1",8.24,"LEFT",47,"[ 1]",1,"ROI_LEFT ",1,"Saccade: 375ms",".","[ 2]",2,"ROI_CENTER ","t1.edf",14,"Trial: 26",6,4,476091,474285.036,1805,"correct","fig2_5d6_28px.png",1,"1","B < A","2",4,4,"Negative","Math","Congruent","nor","5d6","28px",3.85014760171006
"53","t1",16.96,"RIGHT",72,"[ 3]",3,"ROI_RIGHT ",2,"Saccade: 542ms",".","[ 1]",1,"ROI_LEFT ","t1.edf",14,"Trial: 26",6,4,476091,474285.036,1805,"correct","fig2_5d6_28px.png",1,"1","B < A","2",4,4,"Negative","Math","Congruent","nor","5d6","28px",4.27666611901606
"54","t1",0.92,"RIGHT",22,"[ 3]",3,"ROI_RIGHT ",3,"Saccade: 808ms",".","[ 3]",3,"ROI_RIGHT ","t1.edf",14,"Trial: 26",6,4,476091,474285.036,1805,"correct","fig2_5d6_28px.png",1,"1","B < A","2",4,4,"Negative","Math","Congruent","nor","5d6","28px",3.09104245335832
"55","t1",12.85,"LEFT",63,"[ 1]",1,"ROI_LEFT ",4,"Saccade: 962ms",".","[ 3]",3,"ROI_RIGHT ","t1.edf",14,"Trial: 26",6,4,476091,474285.036,1805,"correct","fig2_5d6_28px.png",1,"1","B < A","2",4,4,"Negative","Math","Congruent","nor","5d6","28px",4.14313472639153
"56","t1",7.19,"LEFT",46,"[ 1]",1,"ROI_LEFT ",5,"Saccade: 1472ms",".","[ 1]",1,"ROI_LEFT ","t1.edf",14,"Trial: 26",6,4,476091,474285.036,1805,"correct","fig2_5d6_28px.png",1,"1","B < A","2",4,4,"Negative","Math","Congruent","nor","5d6","28px",3.8286413964891
"57","t1",2.19,"UP",24,"[ 1]",1,"ROI_LEFT ",6,"Saccade: 1754ms",".","[ 1]",1,"ROI_LEFT ","t1.edf",14,"Trial: 26",6,4,476091,474285.036,1805,"correct","fig2_5d6_28px.png",1,"1","B < A","2",4,4,"Negative","Math","Congruent","nor","5d6","28px",3.17805383034795
"58","t1",8.99,"RIGHT",61,"[ 3]",3,"ROI_RIGHT ",1,"Saccade: 357ms",".","[ 2]",2,"ROI_CENTER ","t1.edf",15,"Trial: 27",5,2,482400,480534.639,1865,"correct","fig2_3d4_42px.png",3,"0","B > A","1",4,2,"Positive","Math","Incongruent","nor","3d4","42px",4.11087386417331
"59","t1",1.1,"RIGHT",19,"[ 3]",3,"ROI_RIGHT ",2,"Saccade: 613ms",".","[ 3]",3,"ROI_RIGHT ","t1.edf",15,"Trial: 27",5,2,482400,480534.639,1865,"correct","fig2_3d4_42px.png",3,"0","B > A","1",4,2,"Positive","Math","Incongruent","nor","3d4","42px",2.94443897916644
"60","t1",10.19,"LEFT",59,"[ 2]",2,"ROI_CENTER ",3,"Saccade: 846ms",".","[ 3]",3,"ROI_RIGHT ","t1.edf",15,"Trial: 27",5,2,482400,480534.639,1865,"correct","fig2_3d4_42px.png",3,"0","B > A","1",4,2,"Positive","Math","Incongruent","nor","3d4","42px",4.07753744390572
"61","t1",2.28,"RIGHT",36,"[ 2]",2,"ROI_CENTER ",4,"Saccade: 1408ms",".","[ 2]",2,"ROI_CENTER ","t1.edf",15,"Trial: 27",5,2,482400,480534.639,1865,"correct","fig2_3d4_42px.png",3,"0","B > A","1",4,2,"Positive","Math","Incongruent","nor","3d4","42px",3.58351893845611
"62","t1",2.11,"LEFT",22,"[ 2]",2,"ROI_CENTER ",5,"Saccade: 1841ms",".","[ 2]",2,"ROI_CENTER ","t1.edf",15,"Trial: 27",5,2,482400,480534.639,1865,"correct","fig2_3d4_42px.png",3,"0","B > A","1",4,2,"Positive","Math","Incongruent","nor","3d4","42px",3.09104245335832
"63","t1",6.42,"RIGHT",54,"[ 3]",3,"ROI_RIGHT ",1,"Saccade: 488ms",".","[ 2]",2,"ROI_CENTER ","t1.edf",16,"Trial: 28",3,4,487970,487184.26,785,"correct","fig2_rev_7d8_28px.png",2,"1","B > A","1",4,4,"Positive","Math","Congruent","rev","7d8","28px",3.98898404656427
"64","t1",5.11,"RIGHT",40,"[ 3]",3,"ROI_RIGHT ",2,"Saccade: 641ms",".","[ 3]",3,"ROI_RIGHT ","t1.edf",16,"Trial: 28",3,4,487970,487184.26,785,"correct","fig2_rev_7d8_28px.png",2,"1","B > A","1",4,4,"Positive","Math","Congruent","rev","7d8","28px",3.68887945411394
"65","t1",13.08,"LEFT",61,"[ 1]",1,"ROI_LEFT ",3,"Saccade: 814ms",".","[ 3]",3,"ROI_RIGHT ","t1.edf",16,"Trial: 28",3,4,487970,487184.26,785,"correct","fig2_rev_7d8_28px.png",2,"1","B > A","1",4,4,"Positive","Math","Congruent","rev","7d8","28px",4.11087386417331
"66","t1",6.31,"RIGHT",52,"[ 3]",3,"ROI_RIGHT ",1,"Saccade: 290ms",".","[ 2]",2,"ROI_CENTER ","t1.edf",17,"Trial: 29",2,4,492940,492183.947,756,"correct","fig2_rev_1d2_42px.png",4,"1","B > A","1",4,4,"Positive","Math","Congruent","rev","1d2","42px",3.95124371858143
"67","t1",7.02,"LEFT",49,"[ 2]",2,"ROI_CENTER ",2,"Saccade: 578ms",".","[ 3]",3,"ROI_RIGHT ","t1.edf",17,"Trial: 29",2,4,492940,492183.947,756,"correct","fig2_rev_1d2_42px.png",4,"1","B > A","1",4,4,"Positive","Math","Congruent","rev","1d2","42px",3.89182029811063
"68","t1",3.85,"RIGHT",38,"[ 2]",2,"ROI_CENTER ",1,"Saccade: 481ms",".","[ 2]",2,"ROI_CENTER ","t1.edf",18,"Trial: 30",2,2,498081,497166.951,914,"correct","fig2_rev_1d2_42px.png",4,"0","B < A","2",4,2,"Negative","Math","Incongruent","rev","1d2","42px",3.63758615972639
"69","t1",4.21,"RIGHT",34,"[ 3]",3,"ROI_RIGHT ",2,"Saccade: 928ms",".","[ 2]",2,"ROI_CENTER ","t1.edf",18,"Trial: 30",2,2,498081,497166.951,914,"correct","fig2_rev_1d2_42px.png",4,"0","B < A","2",4,2,"Negative","Math","Incongruent","rev","1d2","42px",3.52636052461616
"70","t1",9.54,"RIGHT",56,"[ 3]",3,"ROI_RIGHT ",1,"Saccade: 487ms",".","[ 2]",2,"ROI_CENTER ","t1.edf",19,"Trial: 31",3,2,510666,509049.567,1616,"correct","fig2_1d2_28px.png",1,"0","B > A","1",4,2,"Positive","Math","Incongruent","nor","1d2","28px",4.02535169073515
"71","t1",8.59,"LEFT",166,"[ 2]",2,"ROI_CENTER ",2,"Saccade: 829ms",".","[ 3]",3,"ROI_RIGHT ","t1.edf",19,"Trial: 31",3,2,510666,509049.567,1616,"correct","fig2_1d2_28px.png",1,"0","B > A","1",4,2,"Positive","Math","Incongruent","nor","1d2","28px",5.11198778835654
"72","t1",0.71,"UP",13,"[ 2]",2,"ROI_CENTER ",3,"Saccade: 1381ms",".","[ 2]",2,"ROI_CENTER ","t1.edf",19,"Trial: 31",3,2,510666,509049.567,1616,"correct","fig2_1d2_28px.png",1,"0","B > A","1",4,2,"Positive","Math","Incongruent","nor","1d2","28px",2.56494935746154
"73","t1",8.09,"RIGHT",67,"[ 3]",3,"ROI_RIGHT ",1,"Saccade: 492ms",".","[ 2]",2,"ROI_CENTER ","t1.edf",20,"Trial: 32",5,4,517184,515532.498,1651,"correct","fig2_9d10_28px.png",1,"1","B < A","2",4,4,"Negative","Math","Congruent","nor","9d10","28px",4.20469261939097
"74","t1",11.62,"LEFT",60,"[ 1]",1,"ROI_LEFT ",2,"Saccade: 664ms",".","[ 3]",3,"ROI_RIGHT ","t1.edf",20,"Trial: 32",5,4,517184,515532.498,1651,"correct","fig2_9d10_28px.png",1,"1","B < A","2",4,4,"Negative","Math","Congruent","nor","9d10","28px",4.0943445622221
"75","t1",4.89,"LEFT",134,"[ 1]",1,"ROI_LEFT ",3,"Saccade: 1046ms",".","[ 1]",1,"ROI_LEFT ","t1.edf",20,"Trial: 32",5,4,517184,515532.498,1651,"correct","fig2_9d10_28px.png",1,"1","B < A","2",4,4,"Negative","Math","Congruent","nor","9d10","28px",4.89783979995091
"76","t1",1.01,"LEFT",17,"[ 1]",1,"ROI_LEFT ",4,"Saccade: 1328ms",".","[ 1]",1,"ROI_LEFT ","t1.edf",20,"Trial: 32",5,4,517184,515532.498,1651,"correct","fig2_9d10_28px.png",1,"1","B < A","2",4,4,"Negative","Math","Congruent","nor","9d10","28px",2.83321334405622
"77","t1",5.75,"RIGHT",51,"[ 1]",1,"ROI_LEFT ",5,"Saccade: 1628ms",".","[ 1]",1,"ROI_LEFT ","t1.edf",20,"Trial: 32",5,4,517184,515532.498,1651,"correct","fig2_9d10_28px.png",1,"1","B < A","2",4,4,"Negative","Math","Congruent","nor","9d10","28px",3.93182563272433
"78","t1",0.21,".",6,"[ 2]",2,"ROI_CENTER ",1,"Saccade: 830ms",".","[ 2]",2,"ROI_CENTER ","t1.edf",21,"Trial: 33",1,2,562500,561546.339,953,"correct","fig2_rev_1d2_28px.png",2,"0","A jest wy?sze ni? B.","1",1,2,"Positive","Polish","Incongruent","rev","1d2","28px",1.79175946922805
"79","t1",6.32,"LEFT",53,"[ 1]",1,"ROI_LEFT ",1,"Saccade: 239ms",".","[ 2]",2,"ROI_CENTER ","t1.edf",22,"Trial: 34",4,2,568513,567279.331,1233,"correct","fig2_7d8_28px.png",1,"0","A jest ni?sze ni? B.","2",1,2,"Negative","Polish","Incongruent","nor","7d8","28px",3.97029191355212
"80","t1",8.7,"RIGHT",58,"[ 2]",2,"ROI_CENTER ",2,"Saccade: 537ms",".","[ 1]",1,"ROI_LEFT ","t1.edf",22,"Trial: 34",4,2,568513,567279.331,1233,"correct","fig2_7d8_28px.png",1,"0","A jest ni?sze ni? B.","2",1,2,"Negative","Polish","Incongruent","nor","7d8","28px",4.06044301054642
"81","t1",5.99,"RIGHT",52,"[ 3]",3,"ROI_RIGHT ",3,"Saccade: 671ms",".","[ 2]",2,"ROI_CENTER ","t1.edf",22,"Trial: 34",4,2,568513,567279.331,1233,"correct","fig2_7d8_28px.png",1,"0","A jest ni?sze ni? B.","2",1,2,"Negative","Polish","Incongruent","nor","7d8","28px",3.95124371858143
"82","t1",9.88,"LEFT",57,"[ 2]",2,"ROI_CENTER ",4,"Saccade: 865ms",".","[ 3]",3,"ROI_RIGHT ","t1.edf",22,"Trial: 34",4,2,568513,567279.331,1233,"correct","fig2_7d8_28px.png",1,"0","A jest ni?sze ni? B.","2",1,2,"Negative","Polish","Incongruent","nor","7d8","28px",4.04305126783455
"83","t1",0.79,"RIGHT",14,"[ 2]",2,"ROI_CENTER ",1,"Saccade: 52ms","RESET_DATA","[ 2]",2,"ROI_CENTER ","t1.edf",23,"Trial: 35",3,4,573851,573162.305,688,"correct","fig2_rev_1d2_28px.png",2,"1","A jest ni?sze ni? B.","2",1,4,"Negative","Polish","Congruent","rev","1d2","28px",2.63905732961526
"84","t1",6.52,"LEFT",51,"[ 1]",1,"ROI_LEFT ",2,"Saccade: 276ms",".","[ 2]",2,"ROI_CENTER ","t1.edf",23,"Trial: 35",3,4,573851,573162.305,688,"correct","fig2_rev_1d2_28px.png",2,"1","A jest ni?sze ni? B.","2",1,4,"Negative","Polish","Congruent","rev","1d2","28px",3.93182563272433
"85","t1",6.97,"RIGHT",57,"[ 2]",2,"ROI_CENTER ",3,"Saccade: 599ms",".","[ 1]",1,"ROI_LEFT ","t1.edf",23,"Trial: 35",3,4,573851,573162.305,688,"correct","fig2_rev_1d2_28px.png",2,"1","A jest ni?sze ni? B.","2",1,4,"Negative","Polish","Congruent","rev","1d2","28px",4.04305126783455
"86","t1",9.34,"LEFT",59,"[ 1]",1,"ROI_LEFT ",1,"Saccade: 475ms",".","[ 2]",2,"ROI_CENTER ","t1.edf",24,"Trial: 36",4,4,580544,578978.617,1565,"correct","fig2_7d8_28px.png",1,"1","A jest wy?sze ni? B.","1",1,4,"Positive","Polish","Congruent","nor","7d8","28px",4.07753744390572
"87","t1",0.6,"UP",19,"[ 1]",1,"ROI_LEFT ",2,"Saccade: 778ms",".","[ 1]",1,"ROI_LEFT ","t1.edf",24,"Trial: 36",4,4,580544,578978.617,1565,"correct","fig2_7d8_28px.png",1,"1","A jest wy?sze ni? B.","1",1,4,"Positive","Polish","Congruent","nor","7d8","28px",2.94443897916644
"88","t1",0.71,"DOWN",13,"[ 1]",1,"ROI_LEFT ",3,"Saccade: 1249ms",".","[ 1]",1,"ROI_LEFT ","t1.edf",24,"Trial: 36",4,4,580544,578978.617,1565,"correct","fig2_7d8_28px.png",1,"1","A jest wy?sze ni? B.","1",1,4,"Positive","Polish","Congruent","nor","7d8","28px",2.56494935746154
"89","t1",5.16,"RIGHT",42,"[ 1]",1,"ROI_LEFT ",4,"Saccade: 1550ms",".","[ 1]",1,"ROI_LEFT ","t1.edf",24,"Trial: 36",4,4,580544,578978.617,1565,"correct","fig2_7d8_28px.png",1,"1","A jest wy?sze ni? B.","1",1,4,"Positive","Polish","Congruent","nor","7d8","28px",3.73766961828337
"90","t1",6.43,"LEFT",51,"[ 1]",1,"ROI_LEFT ",1,"Saccade: 474ms",".","[ 2]",2,"ROI_CENTER ","t1.edf",25,"Trial: 37",5,2,586579,585211.553,1367,"correct","fig2_rev_9d10_28px.png",2,"0","A jest wy?sze ni? B.","1",1,2,"Positive","Polish","Incongruent","rev","9d10","28px",3.93182563272433
"91","t1",7.89,"RIGHT",42,"[ 2]",2,"ROI_CENTER ",2,"Saccade: 796ms",".","[ 1]",1,"ROI_LEFT ","t1.edf",25,"Trial: 37",5,2,586579,585211.553,1367,"correct","fig2_rev_9d10_28px.png",2,"0","A jest wy?sze ni? B.","1",1,2,"Positive","Polish","Incongruent","rev","9d10","28px",3.73766961828337
"92","t1",10.24,"LEFT",61,"[ 1]",1,"ROI_LEFT ",3,"Saccade: 961ms",".","[ 2]",2,"ROI_CENTER ","t1.edf",25,"Trial: 37",5,2,586579,585211.553,1367,"correct","fig2_rev_9d10_28px.png",2,"0","A jest wy?sze ni? B.","1",1,2,"Positive","Polish","Incongruent","rev","9d10","28px",4.11087386417331
"93","t1",0.62,"LEFT",12,"[ 1]",1,"ROI_LEFT ",4,"Saccade: 1198ms",".","[ 1]",1,"ROI_LEFT ","t1.edf",25,"Trial: 37",5,2,586579,585211.553,1367,"correct","fig2_rev_9d10_28px.png",2,"0","A jest wy?sze ni? B.","1",1,2,"Positive","Polish","Incongruent","rev","9d10","28px",2.484906649788
"94","t1",NA,"DOWN",60,"[ ]",NA,".",5,"Saccade: 1413ms","button_reponse","[ 1]",1,"ROI_LEFT ","t1.edf",25,"Trial: 37",5,2,586579,585211.553,1367,"correct","fig2_rev_9d10_28px.png",2,"0","A jest wy?sze ni? B.","1",1,2,"Positive","Polish","Incongruent","rev","9d10","28px",4.0943445622221
"95","t1",3.28,"UP",42,"[ 2]",2,"ROI_CENTER ",1,"Saccade: 647ms",".","[ 2]",2,"ROI_CENTER ","t1.edf",26,"Trial: 38",1,2,592866,591827.835,1038,"correct","fig2_9d10_42px.png",3,"0","A jest ni?sze ni? B.","2",1,2,"Negative","Polish","Incongruent","nor","9d10","42px",3.73766961828337
"96","t1",8.12,"LEFT",48,"[ 1]",1,"ROI_LEFT ",1,"Saccade: 488ms",".","[ 2]",2,"ROI_CENTER ","t1.edf",27,"Trial: 39",2,4,598952,598160.765,791,"correct","fig2_rev_3d4_42px.png",4,"1","A jest ni?sze ni? B.","2",1,4,"Negative","Polish","Congruent","rev","3d4","42px",3.87120101090789
"97","t1",1.04,"LEFT",18,"[ 1]",1,"ROI_LEFT ",2,"Saccade: 742ms",".","[ 1]",1,"ROI_LEFT ","t1.edf",27,"Trial: 39",2,4,598952,598160.765,791,"correct","fig2_rev_3d4_42px.png",4,"1","A jest ni?sze ni? B.","2",1,4,"Negative","Polish","Congruent","rev","3d4","42px",2.89037175789616
"98","t1",4.81,"LEFT",38,"[ 1]",1,"ROI_LEFT ",1,"Saccade: 302ms",".","[ 2]",2,"ROI_CENTER ","t1.edf",28,"Trial: 40",4,4,604303,603427.102,875,"correct","fig2_9d10_42px.png",3,"1","A jest wy?sze ni? B.","1",1,4,"Positive","Polish","Congruent","nor","9d10","42px",3.63758615972639
"99","t1",5.51,"LEFT",40,"[ 1]",1,"ROI_LEFT ",2,"Saccade: 554ms",".","[ 1]",1,"ROI_LEFT ","t1.edf",28,"Trial: 40",4,4,604303,603427.102,875,"correct","fig2_9d10_42px.png",3,"1","A jest wy?sze ni? B.","1",1,4,"Positive","Polish","Congruent","nor","9d10","42px",3.68887945411394
"100","t1",1.7,"UP",21,"[ 1]",1,"ROI_LEFT ",3,"Saccade: 711ms",".","[ 1]",1,"ROI_LEFT ","t1.edf",28,"Trial: 40",4,4,604303,603427.102,875,"correct","fig2_9d10_42px.png",3,"1","A jest wy?sze ni? B.","1",1,4,"Positive","Polish","Congruent","nor","9d10","42px",3.04452243772342
"101","t1",17.25,"RIGHT",83,"[ 3]",3,"ROI_RIGHT ",4,"Saccade: 891ms","button_reponse","[ 1]",1,"ROI_LEFT ","t1.edf",28,"Trial: 40",4,4,604303,603427.102,875,"correct","fig2_9d10_42px.png",3,"1","A jest wy?sze ni? B.","1",1,4,"Positive","Polish","Congruent","nor","9d10","42px",4.4188406077966
"102","t1",6.92,"RIGHT",56,"[ 3]",3,"ROI_RIGHT ",1,"Saccade: 519ms",".","[ 2]",2,"ROI_CENTER ","t1.edf",29,"Trial: 41",3,2,609654,608726.788,927,"correct","fig2_1d2_42px.png",3,"0","A jest ni?sze ni? B.","2",1,2,"Negative","Polish","Incongruent","nor","1d2","42px",4.02535169073515
"103","t1",2.75,"RIGHT",26,"[ 3]",3,"ROI_RIGHT ",2,"Saccade: 695ms",".","[ 3]",3,"ROI_RIGHT ","t1.edf",29,"Trial: 41",3,2,609654,608726.788,927,"correct","fig2_1d2_42px.png",3,"0","A jest ni?sze ni? B.","2",1,2,"Negative","Polish","Incongruent","nor","1d2","42px",3.25809653802148
"104","t1",7.19,"LEFT",55,"[ 2]",2,"ROI_CENTER ",3,"Saccade: 901ms",".","[ 3]",3,"ROI_RIGHT ","t1.edf",29,"Trial: 41",3,2,609654,608726.788,927,"correct","fig2_1d2_42px.png",3,"0","A jest ni?sze ni? B.","2",1,2,"Negative","Polish","Incongruent","nor","1d2","42px",4.00733318523247
"105","t1",7.47,"RIGHT",52,"[ 3]",3,"ROI_RIGHT ",1,"Saccade: 366ms",".","[ 2]",2,"ROI_CENTER ","t1.edf",30,"Trial: 42",3,2,614897,613943.137,953,"correct","fig2_3d4_28px.png",1,"0","A jest ni?sze ni? B.","2",1,2,"Negative","Polish","Incongruent","nor","3d4","28px",3.95124371858143
"106","t1",9.12,"LEFT",48,"[ 2]",2,"ROI_CENTER ",2,"Saccade: 594ms",".","[ 3]",3,"ROI_RIGHT ","t1.edf",30,"Trial: 42",3,2,614897,613943.137,953,"correct","fig2_3d4_28px.png",1,"0","A jest ni?sze ni? B.","2",1,2,"Negative","Polish","Incongruent","nor","3d4","28px",3.87120101090789
"107","t1",6.66,"LEFT",55,"[ 1]",1,"ROI_LEFT ",3,"Saccade: 864ms",".","[ 2]",2,"ROI_CENTER ","t1.edf",30,"Trial: 42",3,2,614897,613943.137,953,"correct","fig2_3d4_28px.png",1,"0","A jest ni?sze ni? B.","2",1,2,"Negative","Polish","Incongruent","nor","3d4","28px",4.00733318523247
"108","t1",0.88,"LEFT",15,"[ 2]",2,"ROI_CENTER ",1,"Saccade: 46ms",".","[ 2]",2,"ROI_CENTER ","t1.edf",31,"Trial: 43",4,4,620527,619592.787,934,"correct","fig2_rev_7d8_42px.png",4,"1","A jest ni?sze ni? B.","2",1,4,"Negative","Polish","Congruent","rev","7d8","42px",2.70805020110221
"109","t1",6.9,"LEFT",47,"[ 1]",1,"ROI_LEFT ",2,"Saccade: 477ms",".","[ 2]",2,"ROI_CENTER ","t1.edf",31,"Trial: 43",4,4,620527,619592.787,934,"correct","fig2_rev_7d8_42px.png",4,"1","A jest ni?sze ni? B.","2",1,4,"Negative","Polish","Congruent","rev","7d8","42px",3.85014760171006
"110","t1",2.28,"LEFT",24,"[ 1]",1,"ROI_LEFT ",3,"Saccade: 698ms",".","[ 1]",1,"ROI_LEFT ","t1.edf",31,"Trial: 43",4,4,620527,619592.787,934,"correct","fig2_rev_7d8_42px.png",4,"1","A jest ni?sze ni? B.","2",1,4,"Negative","Polish","Congruent","rev","7d8","42px",3.17805383034795
"111","t1",7.48,"RIGHT",84,"[ 2]",2,"ROI_CENTER ",4,"Saccade: 965ms","button_reponse","[ 1]",1,"ROI_LEFT ","t1.edf",31,"Trial: 43",4,4,620527,619592.787,934,"correct","fig2_rev_7d8_42px.png",4,"1","A jest ni?sze ni? B.","2",1,4,"Negative","Polish","Congruent","rev","7d8","42px",4.43081679884331
"112","t1",7.17,"RIGHT",56,"[ 3]",3,"ROI_RIGHT ",1,"Saccade: 414ms",".","[ 2]",2,"ROI_CENTER ","t1.edf",32,"Trial: 44",4,4,626247,625175.776,1071,"correct","fig2_5d6_42px.png",3,"1","A jest wy?sze ni? B.","1",1,4,"Positive","Polish","Congruent","nor","5d6","42px",4.02535169073515
"113","t1",14.52,"LEFT",66,"[ 1]",1,"ROI_LEFT ",2,"Saccade: 565ms",".","[ 3]",3,"ROI_RIGHT ","t1.edf",32,"Trial: 44",4,4,626247,625175.776,1071,"correct","fig2_5d6_42px.png",3,"1","A jest wy?sze ni? B.","1",1,4,"Positive","Polish","Congruent","nor","5d6","42px",4.18965474202643
"114","t1",17.74,"RIGHT",77,"[ 3]",3,"ROI_RIGHT ",3,"Saccade: 758ms",".","[ 1]",1,"ROI_LEFT ","t1.edf",32,"Trial: 44",4,4,626247,625175.776,1071,"correct","fig2_5d6_42px.png",3,"1","A jest wy?sze ni? B.","1",1,4,"Positive","Polish","Congruent","nor","5d6","42px",4.34380542185368
"115","t1",NA,"DOWN",150,"[ ]",NA,".",4,"Saccade: 1041ms","button_reponse","[ 3]",3,"ROI_RIGHT ","t1.edf",32,"Trial: 44",4,4,626247,625175.776,1071,"correct","fig2_5d6_42px.png",3,"1","A jest wy?sze ni? B.","1",1,4,"Positive","Polish","Congruent","nor","5d6","42px",5.01063529409626
"116","t1",1.55,"LEFT",23,"[ 2]",2,"ROI_CENTER ",1,"Saccade: 137ms",".","[ 2]",2,"ROI_CENTER ","t1.edf",33,"Trial: 45",2,2,631176,630408.798,767,"correct","fig2_rev_3d4_42px.png",4,"0","A jest wy?sze ni? B.","1",1,2,"Positive","Polish","Incongruent","rev","3d4","42px",3.13549421592915
"117","t1",6.84,"LEFT",45,"[ 1]",1,"ROI_LEFT ",2,"Saccade: 660ms",".","[ 2]",2,"ROI_CENTER ","t1.edf",33,"Trial: 45",2,2,631176,630408.798,767,"correct","fig2_rev_3d4_42px.png",4,"0","A jest wy?sze ni? B.","1",1,2,"Positive","Polish","Incongruent","rev","3d4","42px",3.80666248977032
"118","t1",3.16,"RIGHT",43,"[ 2]",2,"ROI_CENTER ",1,"Saccade: 419ms",".","[ 2]",2,"ROI_CENTER ","t1.edf",34,"Trial: 46",2,4,636755,636058.451,696,"correct","fig2_3d4_28px.png",1,"1","A jest wy?sze ni? B.","1",1,4,"Positive","Polish","Congruent","nor","3d4","28px",3.76120011569356
"119","t1",6.14,"LEFT",40,"[ 1]",1,"ROI_LEFT ",2,"Saccade: 590ms",".","[ 2]",2,"ROI_CENTER ","t1.edf",34,"Trial: 46",2,4,636755,636058.451,696,"correct","fig2_3d4_28px.png",1,"1","A jest wy?sze ni? B.","1",1,4,"Positive","Polish","Congruent","nor","3d4","28px",3.68887945411394
"120","t1",4.84,"LEFT",49,"[ 1]",1,"ROI_LEFT ",1,"Saccade: 347ms",".","[ 2]",2,"ROI_CENTER ","t1.edf",35,"Trial: 47",4,2,641965,641024.804,940,"correct","fig2_rev_7d8_42px.png",4,"0","A jest wy?sze ni? B.","1",1,2,"Positive","Polish","Incongruent","rev","7d8","42px",3.89182029811063
"121","t1",13.15,"RIGHT",70,"[ 3]",3,"ROI_RIGHT ",2,"Saccade: 594ms",".","[ 1]",1,"ROI_LEFT ","t1.edf",35,"Trial: 47",4,2,641965,641024.804,940,"correct","fig2_rev_7d8_42px.png",4,"0","A jest wy?sze ni? B.","1",1,2,"Positive","Polish","Incongruent","rev","7d8","42px",4.24849524204936
"122","t1",10.22,"LEFT",57,"[ 2]",2,"ROI_CENTER ",3,"Saccade: 819ms",".","[ 3]",3,"ROI_RIGHT ","t1.edf",35,"Trial: 47",4,2,641965,641024.804,940,"correct","fig2_rev_7d8_42px.png",4,"0","A jest wy?sze ni? B.","1",1,2,"Positive","Polish","Incongruent","rev","7d8","42px",4.04305126783455
"123","t1",5.81,"DOWN",24,"[ 2]",2,"ROI_CENTER ",4,"Saccade: 1034ms","blank_screen","[ 2]",2,"ROI_CENTER ","t1.edf",35,"Trial: 47",4,2,641965,641024.804,940,"correct","fig2_rev_7d8_42px.png",4,"0","A jest wy?sze ni? B.","1",1,2,"Positive","Polish","Incongruent","rev","7d8","42px",3.17805383034795
"124","t1",7.13,"RIGHT",58,"[ 3]",3,"ROI_RIGHT ",1,"Saccade: 570ms",".","[ 2]",2,"ROI_CENTER ","t1.edf",36,"Trial: 48",3,2,648722,647541.068,1180,"correct","fig2_5d6_42px.png",3,"0","A jest ni?sze ni? B.","2",1,2,"Negative","Polish","Incongruent","nor","5d6","42px",4.06044301054642
"125","t1",6.62,"LEFT",49,"[ 2]",2,"ROI_CENTER ",2,"Saccade: 834ms",".","[ 3]",3,"ROI_RIGHT ","t1.edf",36,"Trial: 48",3,2,648722,647541.068,1180,"correct","fig2_5d6_42px.png",3,"0","A jest ni?sze ni? B.","2",1,2,"Negative","Polish","Incongruent","nor","5d6","42px",3.89182029811063
"126","t1",0.71,"LEFT",33,"[ 2]",2,"ROI_CENTER ",3,"Saccade: 1267ms","blank_screen","[ 2]",2,"ROI_CENTER ","t1.edf",36,"Trial: 48",3,2,648722,647541.068,1180,"correct","fig2_5d6_42px.png",3,"0","A jest ni?sze ni? B.","2",1,2,"Negative","Polish","Incongruent","nor","5d6","42px",3.49650756146648
"127","t1",5.59,"LEFT",43,"[ 1]",1,"ROI_LEFT ",1,"Saccade: 462ms",".","[ 1]",1,"ROI_LEFT ","t1.edf",37,"Trial: 49",3,4,654718,653424.044,1293,"correct","fig2_rev_5d6_28px.png",2,"1","A jest ni?sze ni? B.","2",1,4,"Negative","Polish","Congruent","rev","5d6","28px",3.76120011569356
"128","t1",11.63,"RIGHT",62,"[ 2]",2,"ROI_CENTER ",2,"Saccade: 714ms",".","[ 1]",1,"ROI_LEFT ","t1.edf",37,"Trial: 49",3,4,654718,653424.044,1293,"correct","fig2_rev_5d6_28px.png",2,"1","A jest ni?sze ni? B.","2",1,4,"Negative","Polish","Congruent","rev","5d6","28px",4.12713438504509
"129","t1",4.94,"LEFT",48,"[ 1]",1,"ROI_LEFT ",3,"Saccade: 1248ms",".","[ 2]",2,"ROI_CENTER ","t1.edf",37,"Trial: 49",3,4,654718,653424.044,1293,"correct","fig2_rev_5d6_28px.png",2,"1","A jest ni?sze ni? B.","2",1,4,"Negative","Polish","Congruent","rev","5d6","28px",3.87120101090789
"130","t1",1.29,"RIGHT",19,"[ 2]",2,"ROI_CENTER ",1,"Saccade: 638ms",".","[ 2]",2,"ROI_CENTER ","t1.edf",38,"Trial: 50",1,4,659986,659323.681,662,"correct","fig2_1d2_42px.png",3,"1","A jest wy?sze ni? B.","1",1,4,"Positive","Polish","Congruent","nor","1d2","42px",2.94443897916644
"131","t1",9.82,"LEFT",56,"[ 1]",1,"ROI_LEFT ",1,"Saccade: 325ms",".","[ 2]",2,"ROI_CENTER ","t1.edf",39,"Trial: 51",3,2,665786,664823.339,962,"correct","fig2_rev_5d6_28px.png",2,"0","A jest wy?sze ni? B.","1",1,2,"Positive","Polish","Incongruent","rev","5d6","28px",4.02535169073515
"132","t1",13.9,"RIGHT",72,"[ 3]",3,"ROI_RIGHT ",2,"Saccade: 632ms",".","[ 1]",1,"ROI_LEFT ","t1.edf",39,"Trial: 51",3,2,665786,664823.339,962,"correct","fig2_rev_5d6_28px.png",2,"0","A jest wy?sze ni? B.","1",1,2,"Positive","Polish","Incongruent","rev","5d6","28px",4.27666611901606
"133","t1",6.71,"LEFT",42,"[ 1]",1,"ROI_LEFT ",3,"Saccade: 984ms",".","[ 3]",3,"ROI_RIGHT ","t1.edf",39,"Trial: 51",3,2,665786,664823.339,962,"correct","fig2_rev_5d6_28px.png",2,"0","A jest wy?sze ni? B.","1",1,2,"Positive","Polish","Incongruent","rev","5d6","28px",3.73766961828337
"134","t1",1.28,"LEFT",22,"[ 2]",2,"ROI_CENTER ",1,"Saccade: 44ms","RESET_DATA","[ 2]",2,"ROI_CENTER ","t1.edf",40,"Trial: 52",2,4,671096,670139.687,956,"correct","fig2_rev_9d10_28px.png",2,"1","A jest ni?sze ni? B.","2",1,4,"Negative","Polish","Congruent","rev","9d10","28px",3.09104245335832
"135","t1",1.45,"UP",19,"[ 2]",2,"ROI_CENTER ",2,"Saccade: 435ms",".","[ 2]",2,"ROI_CENTER ","t1.edf",40,"Trial: 52",2,4,671096,670139.687,956,"correct","fig2_rev_9d10_28px.png",2,"1","A jest ni?sze ni? B.","2",1,4,"Negative","Polish","Congruent","rev","9d10","28px",2.94443897916644
"136","t1",10.02,"RIGHT",68,"[ 3]",3,"ROI_RIGHT ",1,"Saccade: 266ms",".","[ 2]",2,"ROI_CENTER ","t1.edf",41,"Trial: 53",6,4,767654,765817.149,1836,"correct","fig2_rev_7d8_28px.png",2,"1","B jest wy?sze ni? A.","1",2,4,"Positive","Polish","Congruent","rev","7d8","28px",4.21950770517611
"137","t1",0.32,".",20,"[ 3]",3,"ROI_RIGHT ",2,"Saccade: 555ms",".","[ 3]",3,"ROI_RIGHT ","t1.edf",41,"Trial: 53",6,4,767654,765817.149,1836,"correct","fig2_rev_7d8_28px.png",2,"1","B jest wy?sze ni? A.","1",2,4,"Positive","Polish","Congruent","rev","7d8","28px",2.99573227355399
"138","t1",2.88,"UP",53,"[ 3]",3,"ROI_RIGHT ",3,"Saccade: 828ms",".","[ 3]",3,"ROI_RIGHT ","t1.edf",41,"Trial: 53",6,4,767654,765817.149,1836,"correct","fig2_rev_7d8_28px.png",2,"1","B jest wy?sze ni? A.","1",2,4,"Positive","Polish","Congruent","rev","7d8","28px",3.97029191355212
"139","t1",1.31,"LEFT",38,"[ 3]",3,"ROI_RIGHT ",4,"Saccade: 1187ms",".","[ 3]",3,"ROI_RIGHT ","t1.edf",41,"Trial: 53",6,4,767654,765817.149,1836,"correct","fig2_rev_7d8_28px.png",2,"1","B jest wy?sze ni? A.","1",2,4,"Positive","Polish","Congruent","rev","7d8","28px",3.63758615972639
"140","t1",2.01,"RIGHT",24,"[ 3]",3,"ROI_RIGHT ",5,"Saccade: 1640ms",".","[ 3]",3,"ROI_RIGHT ","t1.edf",41,"Trial: 53",6,4,767654,765817.149,1836,"correct","fig2_rev_7d8_28px.png",2,"1","B jest wy?sze ni? A.","1",2,4,"Positive","Polish","Congruent","rev","7d8","28px",3.17805383034795
"141","t1",0.35,".",18,"[ 3]",3,"ROI_RIGHT ",6,"Saccade: 1883ms",".","[ 3]",3,"ROI_RIGHT ","t1.edf",41,"Trial: 53",6,4,767654,765817.149,1836,"correct","fig2_rev_7d8_28px.png",2,"1","B jest wy?sze ni? A.","1",2,4,"Positive","Polish","Congruent","rev","7d8","28px",2.89037175789616
"142","t1",0.64,"DOWN",132,"[ 2]",2,"ROI_CENTER ",1,"Saccade: 64ms","SYNCTIME","[ 2]",2,"ROI_CENTER ","t1.edf",42,"Trial: 54",9,4,775252,772933.381,2318,"correct","fig2_9d10_28px.png",1,"1","B jest ni?sze ni? A.","2",2,4,"Negative","Polish","Congruent","nor","9d10","28px",4.88280192258637
"143","t1",5.87,"RIGHT",52,"[ 3]",3,"ROI_RIGHT ",2,"Saccade: 518ms",".","[ 2]",2,"ROI_CENTER ","t1.edf",42,"Trial: 54",9,4,775252,772933.381,2318,"correct","fig2_9d10_28px.png",1,"1","B jest ni?sze ni? A.","2",2,4,"Negative","Polish","Congruent","nor","9d10","28px",3.95124371858143
"144","t1",2.83,"RIGHT",25,"[ 3]",3,"ROI_RIGHT ",3,"Saccade: 673ms",".","[ 3]",3,"ROI_RIGHT ","t1.edf",42,"Trial: 54",9,4,775252,772933.381,2318,"correct","fig2_9d10_28px.png",1,"1","B jest ni?sze ni? A.","2",2,4,"Negative","Polish","Congruent","nor","9d10","28px",3.2188758248682
"145","t1",0.33,".",19,"[ 3]",3,"ROI_RIGHT ",4,"Saccade: 1003ms",".","[ 3]",3,"ROI_RIGHT ","t1.edf",42,"Trial: 54",9,4,775252,772933.381,2318,"correct","fig2_9d10_28px.png",1,"1","B jest ni?sze ni? A.","2",2,4,"Negative","Polish","Congruent","nor","9d10","28px",2.94443897916644
"146","t1",9.71,"LEFT",60,"[ 2]",2,"ROI_CENTER ",5,"Saccade: 1216ms",".","[ 3]",3,"ROI_RIGHT ","t1.edf",42,"Trial: 54",9,4,775252,772933.381,2318,"correct","fig2_9d10_28px.png",1,"1","B jest ni?sze ni? A.","2",2,4,"Negative","Polish","Congruent","nor","9d10","28px",4.0943445622221
"147","t1",4.87,"RIGHT",31,"[ 3]",3,"ROI_RIGHT ",6,"Saccade: 1839ms",".","[ 2]",2,"ROI_CENTER ","t1.edf",42,"Trial: 54",9,4,775252,772933.381,2318,"correct","fig2_9d10_28px.png",1,"1","B jest ni?sze ni? A.","2",2,4,"Negative","Polish","Congruent","nor","9d10","28px",3.43398720448515
"148","t1",4.27,"RIGHT",53,"[ 3]",3,"ROI_RIGHT ",7,"Saccade: 2109ms",".","[ 3]",3,"ROI_RIGHT ","t1.edf",42,"Trial: 54",9,4,775252,772933.381,2318,"correct","fig2_9d10_28px.png",1,"1","B jest ni?sze ni? A.","2",2,4,"Negative","Polish","Congruent","nor","9d10","28px",3.97029191355212
"149","t1",15.48,"LEFT",72,"[ 1]",1,"ROI_LEFT ",8,"Saccade: 2206ms",".","[ 3]",3,"ROI_RIGHT ","t1.edf",42,"Trial: 54",9,4,775252,772933.381,2318,"correct","fig2_9d10_28px.png",1,"1","B jest ni?sze ni? A.","2",2,4,"Negative","Polish","Congruent","nor","9d10","28px",4.27666611901606
"150","t1",10.17,"RIGHT",31,"[ 3]",3,"ROI_RIGHT ",9,"Saccade: 2397ms","blank_screen","[ 1]",1,"ROI_LEFT ","t1.edf",42,"Trial: 54",9,4,775252,772933.381,2318,"correct","fig2_9d10_28px.png",1,"1","B jest ni?sze ni? A.","2",2,4,"Negative","Polish","Congruent","nor","9d10","28px",3.43398720448515
"151","t1",3.51,"LEFT",39,"[ 2]",2,"ROI_CENTER ",1,"Saccade: 676ms",".","[ 2]",2,"ROI_CENTER ","t1.edf",43,"Trial: 55",1,2,781067,780149.598,917,"correct","fig2_rev_3d4_28px.png",2,"0","B jest ni?sze ni? A.","2",2,2,"Negative","Polish","Incongruent","rev","3d4","28px",3.66356164612965
"152","t1",10.2,"LEFT",54,"[ 1]",1,"ROI_LEFT ",1,"Saccade: 290ms",".","[ 2]",2,"ROI_CENTER ","t1.edf",44,"Trial: 56",4,2,787140,785949.241,1190,"correct","fig2_3d4_42px.png",3,"0","B jest wy?sze ni? A.","1",2,2,"Positive","Polish","Incongruent","nor","3d4","42px",3.98898404656427
"153","t1",17.68,"RIGHT",139,"[ 3]",3,"ROI_RIGHT ",2,"Saccade: 492ms",".","[ 1]",1,"ROI_LEFT ","t1.edf",44,"Trial: 56",4,2,787140,785949.241,1190,"correct","fig2_3d4_42px.png",3,"0","B jest wy?sze ni? A.","1",2,2,"Positive","Polish","Incongruent","nor","3d4","42px",4.93447393313069
"154","t1",1.99,"DOWN",32,"[ 3]",3,"ROI_RIGHT ",3,"Saccade: 769ms",".","[ 3]",3,"ROI_RIGHT ","t1.edf",44,"Trial: 56",4,2,787140,785949.241,1190,"correct","fig2_3d4_42px.png",3,"0","B jest wy?sze ni? A.","1",2,2,"Positive","Polish","Incongruent","nor","3d4","42px",3.46573590279973
"155","t1",5.01,"UP",55,"[ 3]",3,"ROI_RIGHT ",4,"Saccade: 1096ms",".","[ 3]",3,"ROI_RIGHT ","t1.edf",44,"Trial: 56",4,2,787140,785949.241,1190,"correct","fig2_3d4_42px.png",3,"0","B jest wy?sze ni? A.","1",2,2,"Positive","Polish","Incongruent","nor","3d4","42px",4.00733318523247
"156","t1",8.83,"RIGHT",48,"[ 3]",3,"ROI_RIGHT ",1,"Saccade: 398ms",".","[ 2]",2,"ROI_CENTER ","t1.edf",45,"Trial: 57",2,4,794572,793798.757,773,"correct","fig2_rev_3d4_28px.png",2,"1","B jest wy?sze ni? A.","1",2,4,"Positive","Polish","Congruent","rev","3d4","28px",3.87120101090789
"157","t1",2.47,"RIGHT",37,"[ 3]",3,"ROI_RIGHT ",2,"Saccade: 632ms",".","[ 3]",3,"ROI_RIGHT ","t1.edf",45,"Trial: 57",2,4,794572,793798.757,773,"correct","fig2_rev_3d4_28px.png",2,"1","B jest wy?sze ni? A.","1",2,4,"Positive","Polish","Congruent","rev","3d4","28px",3.61091791264422
"158","t1",6.79,"RIGHT",57,"[ 3]",3,"ROI_RIGHT ",1,"Saccade: 421ms",".","[ 2]",2,"ROI_CENTER ","t1.edf",47,"Trial: 59",3,4,808012,806614.645,1397,"correct","fig2_5d6_28px.png",1,"1","B jest ni?sze ni? A.","2",2,4,"Negative","Polish","Congruent","nor","5d6","28px",4.04305126783455
"159","t1",3.93,"RIGHT",30,"[ 3]",3,"ROI_RIGHT ",2,"Saccade: 580ms",".","[ 3]",3,"ROI_RIGHT ","t1.edf",47,"Trial: 59",3,4,808012,806614.645,1397,"correct","fig2_5d6_28px.png",1,"1","B jest ni?sze ni? A.","2",2,4,"Negative","Polish","Congruent","nor","5d6","28px",3.40119738166216
"160","t1",13.46,"LEFT",71,"[ 1]",1,"ROI_LEFT ",3,"Saccade: 764ms",".","[ 3]",3,"ROI_RIGHT ","t1.edf",47,"Trial: 59",3,4,808012,806614.645,1397,"correct","fig2_5d6_28px.png",1,"1","B jest ni?sze ni? A.","2",2,4,"Negative","Polish","Congruent","nor","5d6","28px",4.26267987704132
"161","t1",10.08,"RIGHT",54,"[ 3]",3,"ROI_RIGHT ",1,"Saccade: 225ms",".","[ 2]",2,"ROI_CENTER ","t1.edf",48,"Trial: 60",5,4,813893,812497.603,1395,"correct","fig2_7d8_42px.png",3,"1","B jest ni?sze ni? A.","2",2,4,"Negative","Polish","Congruent","nor","7d8","42px",3.98898404656427
"162","t1",4.43,"UP",58,"[ 3]",3,"ROI_RIGHT ",2,"Saccade: 456ms",".","[ 3]",3,"ROI_RIGHT ","t1.edf",48,"Trial: 60",5,4,813893,812497.603,1395,"correct","fig2_7d8_42px.png",3,"1","B jest ni?sze ni? A.","2",2,4,"Negative","Polish","Congruent","nor","7d8","42px",4.06044301054642
"163","t1",12,"LEFT",70,"[ 1]",1,"ROI_LEFT ",3,"Saccade: 578ms",".","[ 3]",3,"ROI_RIGHT ","t1.edf",48,"Trial: 60",5,4,813893,812497.603,1395,"correct","fig2_7d8_42px.png",3,"1","B jest ni?sze ni? A.","2",2,4,"Negative","Polish","Congruent","nor","7d8","42px",4.24849524204936
"164","t1",3.84,"DOWN",47,"[ 1]",1,"ROI_LEFT ",4,"Saccade: 1056ms",".","[ 1]",1,"ROI_LEFT ","t1.edf",48,"Trial: 60",5,4,813893,812497.603,1395,"correct","fig2_7d8_42px.png",3,"1","B jest ni?sze ni? A.","2",2,4,"Negative","Polish","Congruent","nor","7d8","42px",3.85014760171006
"165","t1",14.87,"RIGHT",83,"[ 3]",3,"ROI_RIGHT ",5,"Saccade: 1313ms",".","[ 1]",1,"ROI_LEFT ","t1.edf",48,"Trial: 60",5,4,813893,812497.603,1395,"correct","fig2_7d8_42px.png",3,"1","B jest ni?sze ni? A.","2",2,4,"Negative","Polish","Congruent","nor","7d8","42px",4.4188406077966
"166","t1",9.8,"RIGHT",60,"[ 3]",3,"ROI_RIGHT ",1,"Saccade: 303ms",".","[ 2]",2,"ROI_CENTER ","t1.edf",49,"Trial: 61",5,2,820580,818897.226,1682,"correct","fig2_9d10_28px.png",1,"0","B jest wy?sze ni? A.","1",2,2,"Positive","Polish","Incongruent","nor","9d10","28px",4.0943445622221
"167","t1",13.75,"LEFT",65,"[ 1]",1,"ROI_LEFT ",2,"Saccade: 528ms",".","[ 3]",3,"ROI_RIGHT ","t1.edf",49,"Trial: 61",5,2,820580,818897.226,1682,"correct","fig2_9d10_28px.png",1,"0","B jest wy?sze ni? A.","1",2,2,"Positive","Polish","Incongruent","nor","9d10","28px",4.17438726989564
"168","t1",12.46,"RIGHT",72,"[ 3]",3,"ROI_RIGHT ",3,"Saccade: 928ms",".","[ 1]",1,"ROI_LEFT ","t1.edf",49,"Trial: 61",5,2,820580,818897.226,1682,"correct","fig2_9d10_28px.png",1,"0","B jest wy?sze ni? A.","1",2,2,"Positive","Polish","Incongruent","nor","9d10","28px",4.27666611901606
"169","t1",1.85,"RIGHT",24,"[ 3]",3,"ROI_RIGHT ",4,"Saccade: 1104ms",".","[ 3]",3,"ROI_RIGHT ","t1.edf",49,"Trial: 61",5,2,820580,818897.226,1682,"correct","fig2_9d10_28px.png",1,"0","B jest wy?sze ni? A.","1",2,2,"Positive","Polish","Incongruent","nor","9d10","28px",3.17805383034795
"170","t1",8.14,"LEFT",54,"[ 2]",2,"ROI_CENTER ",5,"Saccade: 1292ms",".","[ 3]",3,"ROI_RIGHT ","t1.edf",49,"Trial: 61",5,2,820580,818897.226,1682,"correct","fig2_9d10_28px.png",1,"0","B jest wy?sze ni? A.","1",2,2,"Positive","Polish","Incongruent","nor","9d10","28px",3.98898404656427
"171","t1",8.72,"RIGHT",59,"[ 3]",3,"ROI_RIGHT ",1,"Saccade: 324ms",".","[ 2]",2,"ROI_CENTER ","t1.edf",50,"Trial: 62",3,2,826460,825363.485,1096,"correct","fig2_rev_1d2_42px.png",4,"0","B jest ni?sze ni? A.","2",2,2,"Negative","Polish","Incongruent","rev","1d2","42px",4.07753744390572
"172","t1",9.49,"LEFT",55,"[ 2]",2,"ROI_CENTER ",2,"Saccade: 634ms",".","[ 3]",3,"ROI_RIGHT ","t1.edf",50,"Trial: 62",3,2,826460,825363.485,1096,"correct","fig2_rev_1d2_42px.png",4,"0","B jest ni?sze ni? A.","2",2,2,"Negative","Polish","Incongruent","rev","1d2","42px",4.00733318523247
"173","t1",10.77,"RIGHT",68,"[ 3]",3,"ROI_RIGHT ",3,"Saccade: 952ms",".","[ 2]",2,"ROI_CENTER ","t1.edf",50,"Trial: 62",3,2,826460,825363.485,1096,"correct","fig2_rev_1d2_42px.png",4,"0","B jest ni?sze ni? A.","2",2,2,"Negative","Polish","Incongruent","rev","1d2","42px",4.21950770517611
"174","t1",10.26,"RIGHT",63,"[ 3]",3,"ROI_RIGHT ",1,"Saccade: 302ms",".","[ 2]",2,"ROI_CENTER ","t1.edf",51,"Trial: 63",4,4,831997,830996.49,1000,"correct","fig2_rev_9d10_42px.png",4,"1","B jest wy?sze ni? A.","1",2,4,"Positive","Polish","Congruent","rev","9d10","42px",4.14313472639153
"175","t1",6.19,"UP",50,"[ 3]",3,"ROI_RIGHT ",2,"Saccade: 528ms",".","[ 3]",3,"ROI_RIGHT ","t1.edf",51,"Trial: 63",4,4,831997,830996.49,1000,"correct","fig2_rev_9d10_42px.png",4,"1","B jest wy?sze ni? A.","1",2,4,"Positive","Polish","Congruent","rev","9d10","42px",3.91202300542815
"176","t1",8.71,"LEFT",59,"[ 2]",2,"ROI_CENTER ",3,"Saccade: 725ms",".","[ 3]",3,"ROI_RIGHT ","t1.edf",51,"Trial: 63",4,4,831997,830996.49,1000,"correct","fig2_rev_9d10_42px.png",4,"1","B jest wy?sze ni? A.","1",2,4,"Positive","Polish","Congruent","rev","9d10","42px",4.07753744390572
"177","t1",8.25,"LEFT",59,"[ 1]",1,"ROI_LEFT ",4,"Saccade: 917ms",".","[ 2]",2,"ROI_CENTER ","t1.edf",51,"Trial: 63",4,4,831997,830996.49,1000,"correct","fig2_rev_9d10_42px.png",4,"1","B jest wy?sze ni? A.","1",2,4,"Positive","Polish","Congruent","rev","9d10","42px",4.07753744390572
"178","t1",9.34,"RIGHT",64,"[ 3]",3,"ROI_RIGHT ",1,"Saccade: 380ms",".","[ 2]",2,"ROI_CENTER ","t1.edf",52,"Trial: 64",2,2,837482,836512.801,969,"correct","fig2_5d6_28px.png",1,"0","B jest wy?sze ni? A.","1",2,2,"Positive","Polish","Incongruent","nor","5d6","28px",4.15888308335967
"179","t1",13.53,"LEFT",65,"[ 1]",1,"ROI_LEFT ",2,"Saccade: 592ms",".","[ 3]",3,"ROI_RIGHT ","t1.edf",52,"Trial: 64",2,2,837482,836512.801,969,"correct","fig2_5d6_28px.png",1,"0","B jest wy?sze ni? A.","1",2,2,"Positive","Polish","Incongruent","nor","5d6","28px",4.17438726989564
"180","t1",8.97,"RIGHT",55,"[ 3]",3,"ROI_RIGHT ",1,"Saccade: 238ms",".","[ 2]",2,"ROI_CENTER ","t1.edf",53,"Trial: 65",2,4,842958,842245.796,712,"correct","fig2_1d2_28px.png",1,"1","B jest ni?sze ni? A.","2",2,4,"Negative","Polish","Congruent","nor","1d2","28px",4.00733318523247
"181","t1",7.31,"LEFT",55,"[ 2]",2,"ROI_CENTER ",2,"Saccade: 518ms",".","[ 3]",3,"ROI_RIGHT ","t1.edf",53,"Trial: 65",2,4,842958,842245.796,712,"correct","fig2_1d2_28px.png",1,"1","B jest ni?sze ni? A.","2",2,4,"Negative","Polish","Congruent","nor","1d2","28px",4.00733318523247
"182","t1",9.42,"RIGHT",63,"[ 3]",3,"ROI_RIGHT ",1,"Saccade: 278ms",".","[ 2]",2,"ROI_CENTER ","t1.edf",54,"Trial: 66",4,2,849055,847695.453,1359,"correct","fig2_rev_9d10_42px.png",4,"0","B jest ni?sze ni? A.","2",2,2,"Negative","Polish","Incongruent","rev","9d10","42px",4.14313472639153
"183","t1",8.59,"LEFT",57,"[ 2]",2,"ROI_CENTER ",2,"Saccade: 533ms",".","[ 3]",3,"ROI_RIGHT ","t1.edf",54,"Trial: 66",4,2,849055,847695.453,1359,"correct","fig2_rev_9d10_42px.png",4,"0","B jest ni?sze ni? A.","2",2,2,"Negative","Polish","Incongruent","rev","9d10","42px",4.04305126783455
"184","t1",5.69,"UP",53,"[ 2]",2,"ROI_CENTER ",3,"Saccade: 722ms",".","[ 2]",2,"ROI_CENTER ","t1.edf",54,"Trial: 66",4,2,849055,847695.453,1359,"correct","fig2_rev_9d10_42px.png",4,"0","B jest ni?sze ni? A.","2",2,2,"Negative","Polish","Incongruent","rev","9d10","42px",3.97029191355212
"185","t1",13.06,"RIGHT",134,"[ 3]",3,"ROI_RIGHT ",4,"Saccade: 1091ms",".","[ 2]",2,"ROI_CENTER ","t1.edf",54,"Trial: 66",4,2,849055,847695.453,1359,"correct","fig2_rev_9d10_42px.png",4,"0","B jest ni?sze ni? A.","2",2,2,"Negative","Polish","Incongruent","rev","9d10","42px",4.89783979995091
"186","t1",7.66,"RIGHT",52,"[ 3]",3,"ROI_RIGHT ",1,"Saccade: 328ms",".","[ 2]",2,"ROI_CENTER ","t1.edf",55,"Trial: 67",3,2,854650,853811.738,838,"correct","fig2_7d8_42px.png",3,"0","B jest wy?sze ni? A.","1",2,2,"Positive","Polish","Incongruent","nor","7d8","42px",3.95124371858143
"187","t1",7.13,"LEFT",50,"[ 2]",2,"ROI_CENTER ",2,"Saccade: 613ms",".","[ 3]",3,"ROI_RIGHT ","t1.edf",55,"Trial: 67",3,2,854650,853811.738,838,"correct","fig2_7d8_42px.png",3,"0","B jest wy?sze ni? A.","1",2,2,"Positive","Polish","Incongruent","nor","7d8","42px",3.91202300542815
"188","t1",2.04,"DOWN",24,"[ 2]",2,"ROI_CENTER ",3,"Saccade: 852ms",".","[ 2]",2,"ROI_CENTER ","t1.edf",55,"Trial: 67",3,2,854650,853811.738,838,"correct","fig2_7d8_42px.png",3,"0","B jest wy?sze ni? A.","1",2,2,"Positive","Polish","Incongruent","nor","7d8","42px",3.17805383034795
"189","t1",7.54,"RIGHT",56,"[ 3]",3,"ROI_RIGHT ",1,"Saccade: 373ms",".","[ 2]",2,"ROI_CENTER ","t1.edf",56,"Trial: 68",2,4,859999,859178.076,820,"correct","fig2_rev_5d6_42px.png",4,"1","B jest wy?sze ni? A.","1",2,4,"Positive","Polish","Congruent","rev","5d6","42px",4.02535169073515
"190","t1",8.17,"LEFT",55,"[ 2]",2,"ROI_CENTER ",2,"Saccade: 645ms",".","[ 3]",3,"ROI_RIGHT ","t1.edf",56,"Trial: 68",2,4,859999,859178.076,820,"correct","fig2_rev_5d6_42px.png",4,"1","B jest wy?sze ni? A.","1",2,4,"Positive","Polish","Congruent","rev","5d6","42px",4.00733318523247
"191","t1",2.83,"RIGHT",28,"[ 2]",2,"ROI_CENTER ",1,"Saccade: 930ms",".","[ 2]",2,"ROI_CENTER ","t1.edf",57,"Trial: 69",2,4,866586,865294.387,1291,"correct","fig2_3d4_42px.png",3,"1","B jest ni?sze ni? A.","2",2,4,"Negative","Polish","Congruent","nor","3d4","42px",3.3322045101752
"192","t1",0.9,"LEFT",16,"[ 2]",2,"ROI_CENTER ",2,"Saccade: 1356ms",".","[ 2]",2,"ROI_CENTER ","t1.edf",57,"Trial: 69",2,4,866586,865294.387,1291,"correct","fig2_3d4_42px.png",3,"1","B jest ni?sze ni? A.","2",2,4,"Negative","Polish","Congruent","nor","3d4","42px",2.77258872223978
"193","t1",7.96,"RIGHT",60,"[ 3]",3,"ROI_RIGHT ",1,"Saccade: 319ms",".","[ 2]",2,"ROI_CENTER ","t1.edf",58,"Trial: 70",3,2,872409,871277.335,1131,"correct","fig2_rev_7d8_28px.png",2,"0","B jest ni?sze ni? A.","2",2,2,"Negative","Polish","Incongruent","rev","7d8","28px",4.0943445622221
"194","t1",2.31,"RIGHT",23,"[ 3]",3,"ROI_RIGHT ",2,"Saccade: 492ms",".","[ 3]",3,"ROI_RIGHT ","t1.edf",58,"Trial: 70",3,2,872409,871277.335,1131,"correct","fig2_rev_7d8_28px.png",2,"0","B jest ni?sze ni? A.","2",2,2,"Negative","Polish","Incongruent","rev","7d8","28px",3.13549421592915
"195","t1",0.82,"UP",15,"[ 3]",3,"ROI_RIGHT ",3,"Saccade: 975ms",".","[ 3]",3,"ROI_RIGHT ","t1.edf",58,"Trial: 70",3,2,872409,871277.335,1131,"correct","fig2_rev_7d8_28px.png",2,"0","B jest ni?sze ni? A.","2",2,2,"Negative","Polish","Incongruent","rev","7d8","28px",2.70805020110221
"196","t1",4.88,"RIGHT",52,"[ 3]",3,"ROI_RIGHT ",1,"Saccade: 381ms",".","[ 2]",2,"ROI_CENTER ","t1.edf",60,"Trial: 72",2,2,883588,882643.314,944,"correct","fig2_rev_5d6_42px.png",4,"0","B jest ni?sze ni? A.","2",2,2,"Negative","Polish","Incongruent","rev","5d6","42px",3.95124371858143
"197","t1",2.54,"LEFT",23,"[ 2]",2,"ROI_CENTER ",2,"Saccade: 813ms",".","[ 3]",3,"ROI_RIGHT ","t1.edf",60,"Trial: 72",2,2,883588,882643.314,944,"correct","fig2_rev_5d6_42px.png",4,"0","B jest ni?sze ni? A.","2",2,2,"Negative","Polish","Incongruent","rev","5d6","42px",3.13549421592915
"198","t1",7.24,"RIGHT",62,"[ 3]",3,"ROI_RIGHT ",1,"Saccade: 619ms",".","[ 2]",2,"ROI_CENTER ","t1.edf",61,"Trial: 73",1,4,970286,969637.961,648,"correct","fig2_rev_3d4_42px.png",4,"1","A < B","2",3,4,"Negative","Math","Congruent","rev","3d4","42px",4.12713438504509
"199","t1",10.19,"RIGHT",64,"[ 3]",3,"ROI_RIGHT ",1,"Saccade: 469ms",".","[ 2]",2,"ROI_CENTER ","t1.edf",65,"Trial: 77",2,2,992590,991603.292,986,"correct","fig2_5d6_42px.png",3,"0","A < B","2",3,2,"Negative","Math","Incongruent","nor","5d6","42px",4.15888308335967
"200","t1",9.22,"LEFT",55,"[ 2]",2,"ROI_CENTER ",2,"Saccade: 698ms",".","[ 3]",3,"ROI_RIGHT ","t1.edf",65,"Trial: 77",2,2,992590,991603.292,986,"correct","fig2_5d6_42px.png",3,"0","A < B","2",3,2,"Negative","Math","Incongruent","nor","5d6","42px",4.00733318523247
"201","t1",5.97,"LEFT",46,"[ 1]",1,"ROI_LEFT ",1,"Saccade: 554ms",".","[ 2]",2,"ROI_CENTER ","t1.edf",66,"Trial: 78",1,4,997343,996769.634,573,"correct","fig2_5d6_42px.png",3,"1","A > B","1",3,4,"Positive","Math","Congruent","nor","5d6","42px",3.8286413964891
"202","t1",9.16,"RIGHT",60,"[ 3]",3,"ROI_RIGHT ",1,"Saccade: 599ms",".","[ 2]",2,"ROI_CENTER ","t1.edf",67,"Trial: 79",4,2,1002713,1001502.669,1210,"correct","fig2_9d10_42px.png",3,"0","A < B","2",3,2,"Negative","Math","Incongruent","nor","9d10","42px",4.0943445622221
"203","t1",2.58,"UP",48,"[ 3]",3,"ROI_RIGHT ",2,"Saccade: 727ms",".","[ 3]",3,"ROI_RIGHT ","t1.edf",67,"Trial: 79",4,2,1002713,1001502.669,1210,"correct","fig2_9d10_42px.png",3,"0","A < B","2",3,2,"Negative","Math","Incongruent","nor","9d10","42px",3.87120101090789
"204","t1",9.58,"LEFT",64,"[ 2]",2,"ROI_CENTER ",3,"Saccade: 878ms",".","[ 3]",3,"ROI_RIGHT ","t1.edf",67,"Trial: 79",4,2,1002713,1001502.669,1210,"correct","fig2_9d10_42px.png",3,"0","A < B","2",3,2,"Negative","Math","Incongruent","nor","9d10","42px",4.15888308335967
"205","t1",8.34,"RIGHT",154,"[ 3]",3,"ROI_RIGHT ",4,"Saccade: 1153ms","button_reponse","[ 2]",2,"ROI_CENTER ","t1.edf",67,"Trial: 79",4,2,1002713,1001502.669,1210,"correct","fig2_9d10_42px.png",3,"0","A < B","2",3,2,"Negative","Math","Incongruent","nor","9d10","42px",5.03695260241363
"206","t1",8.85,"LEFT",55,"[ 1]",1,"ROI_LEFT ",1,"Saccade: 335ms",".","[ 2]",2,"ROI_CENTER ","t1.edf",69,"Trial: 81",2,2,1012590,1011652.058,937,"correct","fig2_rev_9d10_28px.png",2,"0","A > B","1",3,2,"Positive","Math","Incongruent","rev","9d10","28px",4.00733318523247
"207","t1",13.16,"RIGHT",76,"[ 3]",3,"ROI_RIGHT ",2,"Saccade: 563ms",".","[ 1]",1,"ROI_LEFT ","t1.edf",69,"Trial: 81",2,2,1012590,1011652.058,937,"correct","fig2_rev_9d10_28px.png",2,"0","A > B","1",3,2,"Positive","Math","Incongruent","rev","9d10","28px",4.33073334028633
"208","t1",9.11,"LEFT",59,"[ 1]",1,"ROI_LEFT ",1,"Saccade: 400ms",".","[ 2]",2,"ROI_CENTER ","t1.edf",71,"Trial: 83",2,4,1022631,1022134.75,496,"correct","fig2_3d4_28px.png",1,"1","A > B","1",3,4,"Positive","Math","Congruent","nor","3d4","28px",4.07753744390572
"209","t1",0.89,"UP",18,"[ 1]",1,"ROI_LEFT ",2,"Saccade: 600ms",".","[ 1]",1,"ROI_LEFT ","t1.edf",71,"Trial: 83",2,4,1022631,1022134.75,496,"correct","fig2_3d4_28px.png",1,"1","A > B","1",3,4,"Positive","Math","Congruent","nor","3d4","28px",2.89037175789616
"210","t1",3.11,"UP",51,"[ 2]",2,"ROI_CENTER ",1,"Saccade: 442ms",".","[ 2]",2,"ROI_CENTER ","t1.edf",72,"Trial: 84",3,4,1027875,1026901.106,973,"correct","fig2_9d10_42px.png",3,"1","A > B","1",3,4,"Positive","Math","Congruent","nor","9d10","42px",3.93182563272433
"211","t1",6.59,"RIGHT",55,"[ 3]",3,"ROI_RIGHT ",2,"Saccade: 761ms",".","[ 2]",2,"ROI_CENTER ","t1.edf",72,"Trial: 84",3,4,1027875,1026901.106,973,"correct","fig2_9d10_42px.png",3,"1","A > B","1",3,4,"Positive","Math","Congruent","nor","9d10","42px",4.00733318523247
"212","t1",12.03,"LEFT",62,"[ 1]",1,"ROI_LEFT ",3,"Saccade: 918ms",".","[ 3]",3,"ROI_RIGHT ","t1.edf",72,"Trial: 84",3,4,1027875,1026901.106,973,"correct","fig2_9d10_42px.png",3,"1","A > B","1",3,4,"Positive","Math","Congruent","nor","9d10","42px",4.12713438504509
"213","t1",9.16,"RIGHT",57,"[ 3]",3,"ROI_RIGHT ",1,"Saccade: 364ms",".","[ 2]",2,"ROI_CENTER ","t1.edf",73,"Trial: 85",2,2,1033182,1032217.472,964,"correct","fig2_7d8_28px.png",1,"0","A < B","2",3,2,"Negative","Math","Incongruent","nor","7d8","28px",4.04305126783455
"214","t1",9.17,"LEFT",53,"[ 2]",2,"ROI_CENTER ",2,"Saccade: 577ms",".","[ 3]",3,"ROI_RIGHT ","t1.edf",73,"Trial: 85",2,2,1033182,1032217.472,964,"correct","fig2_7d8_28px.png",1,"0","A < B","2",3,2,"Negative","Math","Incongruent","nor","7d8","28px",3.97029191355212
"215","t1",6.19,"RIGHT",54,"[ 3]",3,"ROI_RIGHT ",1,"Saccade: 642ms",".","[ 2]",2,"ROI_CENTER ","t1.edf",74,"Trial: 86",2,4,1039306,1038300.406,1005,"correct","fig2_7d8_28px.png",1,"1","A > B","1",3,4,"Positive","Math","Congruent","nor","7d8","28px",3.98898404656427
"216","t1",12.38,"LEFT",59,"[ 1]",1,"ROI_LEFT ",2,"Saccade: 791ms",".","[ 3]",3,"ROI_RIGHT ","t1.edf",74,"Trial: 86",2,4,1039306,1038300.406,1005,"correct","fig2_7d8_28px.png",1,"1","A > B","1",3,4,"Positive","Math","Congruent","nor","7d8","28px",4.07753744390572
"217","t1",7.46,"RIGHT",49,"[ 3]",3,"ROI_RIGHT ",1,"Saccade: 391ms",".","[ 2]",2,"ROI_CENTER ","t1.edf",75,"Trial: 87",2,4,1044055,1043350.106,704,"correct","fig2_rev_9d10_28px.png",2,"1","A < B","2",3,4,"Negative","Math","Congruent","rev","9d10","28px",3.89182029811063
"218","t1",5.93,"LEFT",48,"[ 2]",2,"ROI_CENTER ",2,"Saccade: 674ms",".","[ 3]",3,"ROI_RIGHT ","t1.edf",75,"Trial: 87",2,4,1044055,1043350.106,704,"correct","fig2_rev_9d10_28px.png",2,"1","A < B","2",3,4,"Negative","Math","Congruent","rev","9d10","28px",3.87120101090789
"219","t1",NA,"DOWN",62,"[ 2]",2,"ROI_CENTER ",1,"Saccade: 1ms","RESET_DATA","[ ]",NA,".","t1.edf",77,"Trial: 89",1,2,1053596,1052866.19,729,"correct","fig2_3d4_28px.png",1,"0","A < B","2",3,2,"Negative","Math","Incongruent","nor","3d4","28px",4.12713438504509
"220","t1",4.8,"LEFT",45,"[ 1]",1,"ROI_LEFT ",1,"Saccade: 323ms",".","[ 2]",2,"ROI_CENTER ","t1.edf",78,"Trial: 90",1,4,1057953,1057432.586,520,"correct","fig2_1d2_42px.png",3,"1","A > B","1",3,4,"Positive","Math","Congruent","nor","1d2","42px",3.80666248977032
"221","t1",0.8,"UP",13,"[ 2]",2,"ROI_CENTER ",1,"Saccade: 166ms",".","[ 2]",2,"ROI_CENTER ","t1.edf",79,"Trial: 91",1,4,1062664,1061915.643,748,"correct","fig2_rev_5d6_28px.png",2,"1","A < B","2",3,4,"Negative","Math","Congruent","rev","5d6","28px",2.56494935746154
"222","t10",9.15,"LEFT",46,"[ 1]",1,"ROI_LEFT ",1,"Saccade: 550ms",".","[ 2]",2,"ROI_CENTER ","t10.edf",1,"Trial: 13",3,2,421762,420413.846,1348,"correct","fig2_3d4_28px.png",1,"0","A jest ni?sze ni? B.","2",1,2,"Negative","Polish","Incongruent","nor","3d4","28px",3.8286413964891
"223","t10",4.49,"DOWN",35,"[ 1]",1,"ROI_LEFT ",2,"Saccade: 781ms",".","[ 1]",1,"ROI_LEFT ","t10.edf",1,"Trial: 13",3,2,421762,420413.846,1348,"correct","fig2_3d4_28px.png",1,"0","A jest ni?sze ni? B.","2",1,2,"Negative","Polish","Incongruent","nor","3d4","28px",3.55534806148941
"224","t10",15.88,"RIGHT",68,"[ 3]",3,"ROI_RIGHT ",3,"Saccade: 1167ms",".","[ 1]",1,"ROI_LEFT ","t10.edf",1,"Trial: 13",3,2,421762,420413.846,1348,"correct","fig2_3d4_28px.png",1,"0","A jest ni?sze ni? B.","2",1,2,"Negative","Polish","Incongruent","nor","3d4","28px",4.21950770517611
"225","t10",8.05,"LEFT",44,"[ 1]",1,"ROI_LEFT ",1,"Saccade: 376ms",".","[ 2]",2,"ROI_CENTER ","t10.edf",2,"Trial: 14",4,4,428060,427013.422,1046,"correct","fig2_rev_3d4_42px.png",4,"1","A jest ni?sze ni? B.","2",1,4,"Negative","Polish","Congruent","rev","3d4","42px",3.78418963391826
"226","t10",2.68,"LEFT",24,"[ 1]",1,"ROI_LEFT ",2,"Saccade: 568ms",".","[ 1]",1,"ROI_LEFT ","t10.edf",2,"Trial: 14",4,4,428060,427013.422,1046,"correct","fig2_rev_3d4_42px.png",4,"1","A jest ni?sze ni? B.","2",1,4,"Negative","Polish","Congruent","rev","3d4","42px",3.17805383034795
"227","t10",4.57,"UP",37,"[ 1]",1,"ROI_LEFT ",3,"Saccade: 802ms",".","[ 1]",1,"ROI_LEFT ","t10.edf",2,"Trial: 14",4,4,428060,427013.422,1046,"correct","fig2_rev_3d4_42px.png",4,"1","A jest ni?sze ni? B.","2",1,4,"Negative","Polish","Congruent","rev","3d4","42px",3.61091791264422
"228","t10",7.73,"RIGHT",49,"[ 2]",2,"ROI_CENTER ",4,"Saccade: 1026ms",".","[ 1]",1,"ROI_LEFT ","t10.edf",2,"Trial: 14",4,4,428060,427013.422,1046,"correct","fig2_rev_3d4_42px.png",4,"1","A jest ni?sze ni? B.","2",1,4,"Negative","Polish","Congruent","rev","3d4","42px",3.89182029811063
"229","t10",8.43,"LEFT",46,"[ 1]",1,"ROI_LEFT ",1,"Saccade: 388ms",".","[ 2]",2,"ROI_CENTER ","t10.edf",3,"Trial: 15",3,2,434629,433379.709,1249,"correct","fig2_rev_3d4_42px.png",4,"0","A jest wy?sze ni? B.","1",1,2,"Positive","Polish","Incongruent","rev","3d4","42px",3.8286413964891
"230","t10",10.35,"RIGHT",50,"[ 2]",2,"ROI_CENTER ",2,"Saccade: 867ms",".","[ 1]",1,"ROI_LEFT ","t10.edf",3,"Trial: 15",3,2,434629,433379.709,1249,"correct","fig2_rev_3d4_42px.png",4,"0","A jest wy?sze ni? B.","1",1,2,"Positive","Polish","Incongruent","rev","3d4","42px",3.91202300542815
"231","t10",6.46,"RIGHT",46,"[ 3]",3,"ROI_RIGHT ",3,"Saccade: 1163ms",".","[ 2]",2,"ROI_CENTER ","t10.edf",3,"Trial: 15",3,2,434629,433379.709,1249,"correct","fig2_rev_3d4_42px.png",4,"0","A jest wy?sze ni? B.","1",1,2,"Positive","Polish","Incongruent","rev","3d4","42px",3.8286413964891
"232","t10",9.22,"LEFT",50,"[ 1]",1,"ROI_LEFT ",1,"Saccade: 510ms",".","[ 2]",2,"ROI_CENTER ","t10.edf",4,"Trial: 16",2,2,441142,439995.965,1146,"correct","fig2_rev_1d2_28px.png",2,"0","A jest wy?sze ni? B.","1",1,2,"Positive","Polish","Incongruent","rev","1d2","28px",3.91202300542815
"233","t10",6.07,"RIGHT",45,"[ 1]",1,"ROI_LEFT ",2,"Saccade: 807ms",".","[ 1]",1,"ROI_LEFT ","t10.edf",4,"Trial: 16",2,2,441142,439995.965,1146,"correct","fig2_rev_1d2_28px.png",2,"0","A jest wy?sze ni? B.","1",1,2,"Positive","Polish","Incongruent","rev","1d2","28px",3.80666248977032
"234","t10",9.09,"LEFT",51,"[ 1]",1,"ROI_LEFT ",1,"Saccade: 489ms",".","[ 2]",2,"ROI_CENTER ","t10.edf",5,"Trial: 17",4,2,448305,446878.877,1426,"incorrect","fig2_rev_9d10_28px.png",2,"1","A jest ni?sze ni? B.","2",1,4,"Negative","Polish","Congruent","rev","9d10","28px",3.93182563272433
"235","t10",2.06,"RIGHT",23,"[ 1]",1,"ROI_LEFT ",2,"Saccade: 680ms",".","[ 1]",1,"ROI_LEFT ","t10.edf",5,"Trial: 17",4,2,448305,446878.877,1426,"incorrect","fig2_rev_9d10_28px.png",2,"1","A jest ni?sze ni? B.","2",1,4,"Negative","Polish","Congruent","rev","9d10","28px",3.13549421592915
"236","t10",13.51,"RIGHT",61,"[ 3]",3,"ROI_RIGHT ",3,"Saccade: 841ms",".","[ 1]",1,"ROI_LEFT ","t10.edf",5,"Trial: 17",4,2,448305,446878.877,1426,"incorrect","fig2_rev_9d10_28px.png",2,"1","A jest ni?sze ni? B.","2",1,4,"Negative","Polish","Congruent","rev","9d10","28px",4.11087386417331
"237","t10",8.33,"LEFT",57,"[ 2]",2,"ROI_CENTER ",4,"Saccade: 1277ms",".","[ 3]",3,"ROI_RIGHT ","t10.edf",5,"Trial: 17",4,2,448305,446878.877,1426,"incorrect","fig2_rev_9d10_28px.png",2,"1","A jest ni?sze ni? B.","2",1,4,"Negative","Polish","Congruent","rev","9d10","28px",4.04305126783455
"238","t10",7.56,"LEFT",43,"[ 1]",1,"ROI_LEFT ",1,"Saccade: 489ms",".","[ 2]",2,"ROI_CENTER ","t10.edf",6,"Trial: 18",4,2,456449,454828.386,1620,"correct","fig2_7d8_28px.png",1,"0","A jest ni?sze ni? B.","2",1,2,"Negative","Polish","Incongruent","nor","7d8","28px",3.76120011569356
"239","t10",5.92,"RIGHT",44,"[ 2]",2,"ROI_CENTER ",2,"Saccade: 794ms",".","[ 1]",1,"ROI_LEFT ","t10.edf",6,"Trial: 18",4,2,456449,454828.386,1620,"correct","fig2_7d8_28px.png",1,"0","A jest ni?sze ni? B.","2",1,2,"Negative","Polish","Incongruent","nor","7d8","28px",3.78418963391826
"240","t10",7.37,"RIGHT",45,"[ 3]",3,"ROI_RIGHT ",3,"Saccade: 1166ms",".","[ 2]",2,"ROI_CENTER ","t10.edf",6,"Trial: 18",4,2,456449,454828.386,1620,"correct","fig2_7d8_28px.png",1,"0","A jest ni?sze ni? B.","2",1,2,"Negative","Polish","Incongruent","nor","7d8","28px",3.80666248977032
"241","t10",10.51,"LEFT",53,"[ 1]",1,"ROI_LEFT ",4,"Saccade: 1403ms",".","[ 3]",3,"ROI_RIGHT ","t10.edf",6,"Trial: 18",4,2,456449,454828.386,1620,"correct","fig2_7d8_28px.png",1,"0","A jest ni?sze ni? B.","2",1,2,"Negative","Polish","Incongruent","nor","7d8","28px",3.97029191355212
"242","t10",8.27,"LEFT",46,"[ 1]",1,"ROI_LEFT ",1,"Saccade: 461ms",".","[ 2]",2,"ROI_CENTER ","t10.edf",7,"Trial: 19",2,4,463076,461877.943,1198,"correct","fig2_7d8_28px.png",1,"1","A jest wy?sze ni? B.","1",1,4,"Positive","Polish","Congruent","nor","7d8","28px",3.8286413964891
"243","t10",6.86,"RIGHT",44,"[ 2]",2,"ROI_CENTER ",2,"Saccade: 816ms",".","[ 1]",1,"ROI_LEFT ","t10.edf",7,"Trial: 19",2,4,463076,461877.943,1198,"correct","fig2_7d8_28px.png",1,"1","A jest wy?sze ni? B.","1",1,4,"Positive","Polish","Congruent","nor","7d8","28px",3.78418963391826
"244","t10",6.23,"LEFT",43,"[ 1]",1,"ROI_LEFT ",1,"Saccade: 447ms",".","[ 2]",2,"ROI_CENTER ","t10.edf",8,"Trial: 20",3,4,469418,468377.551,1040,"correct","fig2_1d2_42px.png",3,"1","A jest wy?sze ni? B.","1",1,4,"Positive","Polish","Congruent","nor","1d2","42px",3.76120011569356
"245","t10",6.25,"RIGHT",45,"[ 2]",2,"ROI_CENTER ",2,"Saccade: 719ms",".","[ 1]",1,"ROI_LEFT ","t10.edf",8,"Trial: 20",3,4,469418,468377.551,1040,"correct","fig2_1d2_42px.png",3,"1","A jest wy?sze ni? B.","1",1,4,"Positive","Polish","Congruent","nor","1d2","42px",3.80666248977032
"246","t10",5.98,"LEFT",45,"[ 1]",1,"ROI_LEFT ",3,"Saccade: 965ms",".","[ 2]",2,"ROI_CENTER ","t10.edf",8,"Trial: 20",3,4,469418,468377.551,1040,"correct","fig2_1d2_42px.png",3,"1","A jest wy?sze ni? B.","1",1,4,"Positive","Polish","Congruent","nor","1d2","42px",3.80666248977032
"247","t10",6.38,"LEFT",46,"[ 1]",1,"ROI_LEFT ",1,"Saccade: 508ms",".","[ 2]",2,"ROI_CENTER ","t10.edf",9,"Trial: 21",5,2,476118,474343.866,1774,"correct","fig2_rev_9d10_28px.png",2,"0","A jest wy?sze ni? B.","1",1,2,"Positive","Polish","Incongruent","rev","9d10","28px",3.8286413964891
"248","t10",9.69,"RIGHT",53,"[ 3]",3,"ROI_RIGHT ",2,"Saccade: 750ms",".","[ 1]",1,"ROI_LEFT ","t10.edf",9,"Trial: 21",5,2,476118,474343.866,1774,"correct","fig2_rev_9d10_28px.png",2,"0","A jest wy?sze ni? B.","1",1,2,"Positive","Polish","Incongruent","rev","9d10","28px",3.97029191355212
"249","t10",5.91,"RIGHT",42,"[ 3]",3,"ROI_RIGHT ",3,"Saccade: 1050ms",".","[ 3]",3,"ROI_RIGHT ","t10.edf",9,"Trial: 21",5,2,476118,474343.866,1774,"correct","fig2_rev_9d10_28px.png",2,"0","A jest wy?sze ni? B.","1",1,2,"Positive","Polish","Incongruent","rev","9d10","28px",3.73766961828337
"250","t10",10.88,"LEFT",62,"[ 2]",2,"ROI_CENTER ",4,"Saccade: 1224ms",".","[ 3]",3,"ROI_RIGHT ","t10.edf",9,"Trial: 21",5,2,476118,474343.866,1774,"correct","fig2_rev_9d10_28px.png",2,"0","A jest wy?sze ni? B.","1",1,2,"Positive","Polish","Incongruent","rev","9d10","28px",4.12713438504509
"251","t10",2.89,"RIGHT",33,"[ 2]",2,"ROI_CENTER ",5,"Saccade: 1479ms",".","[ 2]",2,"ROI_CENTER ","t10.edf",9,"Trial: 21",5,2,476118,474343.866,1774,"correct","fig2_rev_9d10_28px.png",2,"0","A jest wy?sze ni? B.","1",1,2,"Positive","Polish","Incongruent","rev","9d10","28px",3.49650756146648
"252","t10",7.05,"LEFT",43,"[ 1]",1,"ROI_LEFT ",1,"Saccade: 305ms",".","[ 2]",2,"ROI_CENTER ","t10.edf",11,"Trial: 23",4,4,488021,486776.43,1244,"correct","fig2_5d6_42px.png",3,"1","A jest wy?sze ni? B.","1",1,4,"Positive","Polish","Congruent","nor","5d6","42px",3.76120011569356
"253","t10",7.26,"RIGHT",49,"[ 2]",2,"ROI_CENTER ",2,"Saccade: 479ms",".","[ 1]",1,"ROI_LEFT ","t10.edf",11,"Trial: 23",4,4,488021,486776.43,1244,"correct","fig2_5d6_42px.png",3,"1","A jest wy?sze ni? B.","1",1,4,"Positive","Polish","Congruent","nor","5d6","42px",3.89182029811063
"254","t10",1.44,"UP",21,"[ 2]",2,"ROI_CENTER ",3,"Saccade: 797ms",".","[ 2]",2,"ROI_CENTER ","t10.edf",11,"Trial: 23",4,4,488021,486776.43,1244,"correct","fig2_5d6_42px.png",3,"1","A jest wy?sze ni? B.","1",1,4,"Positive","Polish","Congruent","nor","5d6","42px",3.04452243772342
"255","t10",1.41,"LEFT",15,"[ 2]",2,"ROI_CENTER ",4,"Saccade: 1335ms",".","[ 2]",2,"ROI_CENTER ","t10.edf",11,"Trial: 23",4,4,488021,486776.43,1244,"correct","fig2_5d6_42px.png",3,"1","A jest wy?sze ni? B.","1",1,4,"Positive","Polish","Congruent","nor","5d6","42px",2.70805020110221
"256","t10",0.36,".",9,"[ 2]",2,"ROI_CENTER ",1,"Saccade: 466ms",".","[ 2]",2,"ROI_CENTER ","t10.edf",12,"Trial: 24",3,4,493320,492259.432,1060,"correct","fig2_rev_7d8_42px.png",4,"1","A jest ni?sze ni? B.","2",1,4,"Negative","Polish","Congruent","rev","7d8","42px",2.19722457733622
"257","t10",7.38,"LEFT",49,"[ 1]",1,"ROI_LEFT ",2,"Saccade: 743ms",".","[ 2]",2,"ROI_CENTER ","t10.edf",12,"Trial: 24",3,4,493320,492259.432,1060,"correct","fig2_rev_7d8_42px.png",4,"1","A jest ni?sze ni? B.","2",1,4,"Negative","Polish","Congruent","rev","7d8","42px",3.89182029811063
"258","t10",7.24,"RIGHT",45,"[ 2]",2,"ROI_CENTER ",3,"Saccade: 1008ms",".","[ 1]",1,"ROI_LEFT ","t10.edf",12,"Trial: 24",3,4,493320,492259.432,1060,"correct","fig2_rev_7d8_42px.png",4,"1","A jest ni?sze ni? B.","2",1,4,"Negative","Polish","Congruent","rev","7d8","42px",3.80666248977032
"259","t10",5.06,"LEFT",45,"[ 1]",1,"ROI_LEFT ",1,"Saccade: 534ms",".","[ 2]",2,"ROI_CENTER ","t10.edf",13,"Trial: 25",4,2,500637,499175.668,1461,"correct","fig2_5d6_42px.png",3,"0","A jest ni?sze ni? B.","2",1,2,"Negative","Polish","Incongruent","nor","5d6","42px",3.80666248977032
"260","t10",7.19,"RIGHT",45,"[ 2]",2,"ROI_CENTER ",2,"Saccade: 868ms",".","[ 1]",1,"ROI_LEFT ","t10.edf",13,"Trial: 25",4,2,500637,499175.668,1461,"correct","fig2_5d6_42px.png",3,"0","A jest ni?sze ni? B.","2",1,2,"Negative","Polish","Incongruent","nor","5d6","42px",3.80666248977032
"261","t10",7.62,"LEFT",46,"[ 1]",1,"ROI_LEFT ",3,"Saccade: 1210ms",".","[ 2]",2,"ROI_CENTER ","t10.edf",13,"Trial: 25",4,2,500637,499175.668,1461,"correct","fig2_5d6_42px.png",3,"0","A jest ni?sze ni? B.","2",1,2,"Negative","Polish","Incongruent","nor","5d6","42px",3.8286413964891
"262","t10",7.59,"RIGHT",48,"[ 2]",2,"ROI_CENTER ",4,"Saccade: 1439ms",".","[ 1]",1,"ROI_LEFT ","t10.edf",13,"Trial: 25",4,2,500637,499175.668,1461,"correct","fig2_5d6_42px.png",3,"0","A jest ni?sze ni? B.","2",1,2,"Negative","Polish","Incongruent","nor","5d6","42px",3.87120101090789
"263","t10",2.36,"LEFT",31,"[ 2]",2,"ROI_CENTER ",1,"Saccade: 744ms",".","[ 2]",2,"ROI_CENTER ","t10.edf",14,"Trial: 26",1,4,506402,505475.29,926,"correct","fig2_9d10_42px.png",3,"1","A jest wy?sze ni? B.","1",1,4,"Positive","Polish","Congruent","nor","9d10","42px",3.43398720448515
"264","t10",0.5,".",10,"[ 2]",2,"ROI_CENTER ",1,"Saccade: 755ms",".","[ 2]",2,"ROI_CENTER ","t10.edf",15,"Trial: 27",1,2,512637,511708.235,928,"correct","fig2_rev_5d6_28px.png",2,"0","A jest wy?sze ni? B.","1",1,2,"Positive","Polish","Incongruent","rev","5d6","28px",2.30258509299405
"265","t10",0.98,"RIGHT",14,"[ 2]",2,"ROI_CENTER ",1,"Saccade: 1039ms",".","[ 2]",2,"ROI_CENTER ","t10.edf",18,"Trial: 30",1,4,529661,528507.197,1153,"correct","fig2_rev_5d6_28px.png",2,"1","A jest ni?sze ni? B.","2",1,4,"Negative","Polish","Congruent","rev","5d6","28px",2.63905732961526
"266","t10",0.88,"RIGHT",17,"[ 2]",2,"ROI_CENTER ",1,"Saccade: 817ms",".","[ 2]",2,"ROI_CENTER ","t10.edf",22,"Trial: 34",1,2,604988,603485.924,1502,"correct","fig2_rev_9d10_42px.png",4,"0","B jest ni?sze ni? A.","2",2,2,"Negative","Polish","Incongruent","rev","9d10","42px",2.83321334405622
"267","t10",0.86,"RIGHT",15,"[ 2]",2,"ROI_CENTER ",1,"Saccade: 811ms",".","[ 2]",2,"ROI_CENTER ","t10.edf",27,"Trial: 39",2,2,631998,630967.584,1030,"correct","fig2_rev_3d4_28px.png",2,"0","B jest ni?sze ni? A.","2",2,2,"Negative","Polish","Incongruent","rev","3d4","28px",2.70805020110221
"268","t10",1.37,"LEFT",18,"[ 2]",2,"ROI_CENTER ",2,"Saccade: 1098ms","button_reponse","[ 2]",2,"ROI_CENTER ","t10.edf",27,"Trial: 39",2,2,631998,630967.584,1030,"correct","fig2_rev_3d4_28px.png",2,"0","B jest ni?sze ni? A.","2",2,2,"Negative","Polish","Incongruent","rev","3d4","28px",2.89037175789616
"269","t10",0.72,"RIGHT",13,"[ 2]",2,"ROI_CENTER ",1,"Saccade: 788ms",".","[ 2]",2,"ROI_CENTER ","t10.edf",30,"Trial: 42",1,2,649824,648783.148,1040,"correct","fig2_1d2_28px.png",1,"0","B jest wy?sze ni? A.","1",2,2,"Positive","Polish","Incongruent","nor","1d2","28px",2.56494935746154
"270","t10",1.57,"RIGHT",20,"[ 2]",2,"ROI_CENTER ",1,"Saccade: 622ms",".","[ 2]",2,"ROI_CENTER ","t10.edf",31,"Trial: 43",1,4,654925,653982.817,942,"correct","fig2_1d2_28px.png",1,"1","B jest ni?sze ni? A.","2",2,4,"Negative","Polish","Congruent","nor","1d2","28px",2.99573227355399
"271","t10",1.5,"RIGHT",24,"[ 2]",2,"ROI_CENTER ",1,"Saccade: 536ms",".","[ 2]",2,"ROI_CENTER ","t10.edf",32,"Trial: 44",3,2,660674,659365.837,1308,"correct","fig2_5d6_28px.png",1,"0","B jest wy?sze ni? A.","1",2,2,"Positive","Polish","Incongruent","nor","5d6","28px",3.17805383034795
"272","t10",3.05,"LEFT",26,"[ 2]",2,"ROI_CENTER ",2,"Saccade: 836ms",".","[ 2]",2,"ROI_CENTER ","t10.edf",32,"Trial: 44",3,2,660674,659365.837,1308,"correct","fig2_5d6_28px.png",1,"0","B jest wy?sze ni? A.","1",2,2,"Positive","Polish","Incongruent","nor","5d6","28px",3.25809653802148
"273","t10",1.75,"RIGHT",22,"[ 2]",2,"ROI_CENTER ",3,"Saccade: 1038ms",".","[ 2]",2,"ROI_CENTER ","t10.edf",32,"Trial: 44",3,2,660674,659365.837,1308,"correct","fig2_5d6_28px.png",1,"0","B jest wy?sze ni? A.","1",2,2,"Positive","Polish","Incongruent","nor","5d6","28px",3.09104245335832
"274","t10",1.33,"RIGHT",19,"[ 2]",2,"ROI_CENTER ",1,"Saccade: 1043ms",".","[ 2]",2,"ROI_CENTER ","t10.edf",35,"Trial: 47",2,2,678886,677448.045,1437,"correct","fig2_rev_7d8_28px.png",2,"0","B jest ni?sze ni? A.","2",2,2,"Negative","Polish","Incongruent","rev","7d8","28px",2.94443897916644
"275","t10",2.32,"LEFT",25,"[ 2]",2,"ROI_CENTER ",2,"Saccade: 1287ms",".","[ 2]",2,"ROI_CENTER ","t10.edf",35,"Trial: 47",2,2,678886,677448.045,1437,"correct","fig2_rev_7d8_28px.png",2,"0","B jest ni?sze ni? A.","2",2,2,"Negative","Polish","Incongruent","rev","7d8","28px",3.2188758248682
"276","t10",0.95,"RIGHT",14,"[ 2]",2,"ROI_CENTER ",1,"Saccade: 626ms",".","[ 2]",2,"ROI_CENTER ","t10.edf",36,"Trial: 48",2,2,683977,682981.052,995,"correct","fig2_rev_1d2_42px.png",4,"0","B jest ni?sze ni? A.","2",2,2,"Negative","Polish","Incongruent","rev","1d2","42px",2.63905732961526
"277","t10",0.77,"LEFT",12,"[ 2]",2,"ROI_CENTER ",2,"Saccade: 1018ms",".","[ 2]",2,"ROI_CENTER ","t10.edf",36,"Trial: 48",2,2,683977,682981.052,995,"correct","fig2_rev_1d2_42px.png",4,"0","B jest ni?sze ni? A.","2",2,2,"Negative","Polish","Incongruent","rev","1d2","42px",2.484906649788
"278","t10",1.39,"RIGHT",17,"[ 2]",2,"ROI_CENTER ",1,"Saccade: 991ms",".","[ 2]",2,"ROI_CENTER ","t10.edf",40,"Trial: 52",1,2,709351,708296.168,1054,"correct","fig2_7d8_42px.png",3,"0","B jest wy?sze ni? A.","1",2,2,"Positive","Polish","Incongruent","nor","7d8","42px",2.83321334405622
"279","t10",10.09,"RIGHT",51,"[ 3]",3,"ROI_RIGHT ",1,"Saccade: 363ms",".","[ 2]",2,"ROI_CENTER ","t10.edf",41,"Trial: 53",4,4,752618,750976.881,1641,"correct","fig2_rev_5d6_42px.png",4,"1","B > A","1",4,4,"Positive","Math","Congruent","rev","5d6","42px",3.93182563272433
"280","t10",13.77,"LEFT",60,"[ 1]",1,"ROI_LEFT ",2,"Saccade: 604ms",".","[ 3]",3,"ROI_RIGHT ","t10.edf",41,"Trial: 53",4,4,752618,750976.881,1641,"correct","fig2_rev_5d6_42px.png",4,"1","B > A","1",4,4,"Positive","Math","Congruent","rev","5d6","42px",4.0943445622221
"281","t10",2.75,"RIGHT",28,"[ 2]",2,"ROI_CENTER ",3,"Saccade: 802ms",".","[ 1]",1,"ROI_LEFT ","t10.edf",41,"Trial: 53",4,4,752618,750976.881,1641,"correct","fig2_rev_5d6_42px.png",4,"1","B > A","1",4,4,"Positive","Math","Congruent","rev","5d6","42px",3.3322045101752
"282","t10",3.43,"RIGHT",34,"[ 2]",2,"ROI_CENTER ",4,"Saccade: 1140ms",".","[ 2]",2,"ROI_CENTER ","t10.edf",41,"Trial: 53",4,4,752618,750976.881,1641,"correct","fig2_rev_5d6_42px.png",4,"1","B > A","1",4,4,"Positive","Math","Congruent","rev","5d6","42px",3.52636052461616
"283","t10",7.33,"RIGHT",44,"[ 3]",3,"ROI_RIGHT ",1,"Saccade: 264ms",".","[ 2]",2,"ROI_CENTER ","t10.edf",42,"Trial: 54",3,2,758424,757176.498,1247,"correct","fig2_rev_1d2_42px.png",4,"0","B < A","2",4,2,"Negative","Math","Incongruent","rev","1d2","42px",3.78418963391826
"284","t10",11.14,"LEFT",55,"[ 1]",1,"ROI_LEFT ",2,"Saccade: 428ms",".","[ 3]",3,"ROI_RIGHT ","t10.edf",42,"Trial: 54",3,2,758424,757176.498,1247,"correct","fig2_rev_1d2_42px.png",4,"0","B < A","2",4,2,"Negative","Math","Incongruent","rev","1d2","42px",4.00733318523247
"285","t10",4.11,"RIGHT",40,"[ 2]",2,"ROI_CENTER ",3,"Saccade: 676ms",".","[ 1]",1,"ROI_LEFT ","t10.edf",42,"Trial: 54",3,2,758424,757176.498,1247,"correct","fig2_rev_1d2_42px.png",4,"0","B < A","2",4,2,"Negative","Math","Incongruent","rev","1d2","42px",3.68887945411394
"286","t10",8.45,"RIGHT",46,"[ 3]",3,"ROI_RIGHT ",1,"Saccade: 340ms",".","[ 2]",2,"ROI_CENTER ","t10.edf",44,"Trial: 56",4,2,771906,770409.018,1496,"correct","fig2_5d6_28px.png",1,"0","B > A","1",4,2,"Positive","Math","Incongruent","nor","5d6","28px",3.8286413964891
"287","t10",8.53,"LEFT",48,"[ 2]",2,"ROI_CENTER ",2,"Saccade: 507ms",".","[ 3]",3,"ROI_RIGHT ","t10.edf",44,"Trial: 56",4,2,771906,770409.018,1496,"correct","fig2_5d6_28px.png",1,"0","B > A","1",4,2,"Positive","Math","Incongruent","nor","5d6","28px",3.87120101090789
"288","t10",1.24,"RIGHT",17,"[ 2]",2,"ROI_CENTER ",3,"Saccade: 1177ms",".","[ 2]",2,"ROI_CENTER ","t10.edf",44,"Trial: 56",4,2,771906,770409.018,1496,"correct","fig2_5d6_28px.png",1,"0","B > A","1",4,2,"Positive","Math","Incongruent","nor","5d6","28px",2.83321334405622
"289","t10",1.16,"LEFT",19,"[ 2]",2,"ROI_CENTER ",4,"Saccade: 1546ms",".","[ 2]",2,"ROI_CENTER ","t10.edf",44,"Trial: 56",4,2,771906,770409.018,1496,"correct","fig2_5d6_28px.png",1,"0","B > A","1",4,2,"Positive","Math","Incongruent","nor","5d6","28px",2.94443897916644
"290","t10",0.74,"UP",15,"[ 2]",2,"ROI_CENTER ",1,"Saccade: 784ms",".","[ 2]",2,"ROI_CENTER ","t10.edf",48,"Trial: 60",2,2,796448,795174.149,1273,"correct","fig2_9d10_28px.png",1,"0","B > A","1",4,2,"Positive","Math","Incongruent","nor","9d10","28px",2.70805020110221
"291","t10",0.46,".",11,"[ 2]",2,"ROI_CENTER ",2,"Saccade: 1156ms",".","[ 2]",2,"ROI_CENTER ","t10.edf",48,"Trial: 60",2,2,796448,795174.149,1273,"correct","fig2_9d10_28px.png",1,"0","B > A","1",4,2,"Positive","Math","Incongruent","nor","9d10","28px",2.39789527279837
"292","t10",1.08,"LEFT",22,"[ 2]",2,"ROI_CENTER ",1,"Saccade: 565ms",".","[ 2]",2,"ROI_CENTER ","t10.edf",50,"Trial: 62",8,4,813405,810106.566,3298,"correct","fig2_rev_9d10_42px.png",4,"1","B > A","1",4,4,"Positive","Math","Congruent","rev","9d10","42px",3.09104245335832
"293","t10",1.56,"RIGHT",21,"[ 2]",2,"ROI_CENTER ",2,"Saccade: 1086ms",".","[ 2]",2,"ROI_CENTER ","t10.edf",50,"Trial: 62",8,4,813405,810106.566,3298,"correct","fig2_rev_9d10_42px.png",4,"1","B > A","1",4,4,"Positive","Math","Congruent","rev","9d10","42px",3.04452243772342
"294","t10",5.56,"UP",46,"[ 3]",3,"ROI_RIGHT ",3,"Saccade: 1333ms",".","[ 2]",2,"ROI_CENTER ","t10.edf",50,"Trial: 62",8,4,813405,810106.566,3298,"correct","fig2_rev_9d10_42px.png",4,"1","B > A","1",4,4,"Positive","Math","Congruent","rev","9d10","42px",3.8286413964891
"295","t10",3.05,"RIGHT",31,"[ 3]",3,"ROI_RIGHT ",4,"Saccade: 1409ms",".","[ 3]",3,"ROI_RIGHT ","t10.edf",50,"Trial: 62",8,4,813405,810106.566,3298,"correct","fig2_rev_9d10_42px.png",4,"1","B > A","1",4,4,"Positive","Math","Congruent","rev","9d10","42px",3.43398720448515
"296","t10",1.79,"RIGHT",23,"[ 3]",3,"ROI_RIGHT ",5,"Saccade: 1565ms",".","[ 3]",3,"ROI_RIGHT ","t10.edf",50,"Trial: 62",8,4,813405,810106.566,3298,"correct","fig2_rev_9d10_42px.png",4,"1","B > A","1",4,4,"Positive","Math","Congruent","rev","9d10","42px",3.13549421592915
"297","t10",15.53,"LEFT",68,"[ 1]",1,"ROI_LEFT ",6,"Saccade: 1792ms",".","[ 3]",3,"ROI_RIGHT ","t10.edf",50,"Trial: 62",8,4,813405,810106.566,3298,"correct","fig2_rev_9d10_42px.png",4,"1","B > A","1",4,4,"Positive","Math","Congruent","rev","9d10","42px",4.21950770517611
"298","t10",4.25,"RIGHT",44,"[ 2]",2,"ROI_CENTER ",7,"Saccade: 2730ms",".","[ 1]",1,"ROI_LEFT ","t10.edf",50,"Trial: 62",8,4,813405,810106.566,3298,"correct","fig2_rev_9d10_42px.png",4,"1","B > A","1",4,4,"Positive","Math","Congruent","rev","9d10","42px",3.78418963391826
"299","t10",7.45,"RIGHT",54,"[ 3]",3,"ROI_RIGHT ",8,"Saccade: 3268ms",".","[ 2]",2,"ROI_CENTER ","t10.edf",50,"Trial: 62",8,4,813405,810106.566,3298,"correct","fig2_rev_9d10_42px.png",4,"1","B > A","1",4,4,"Positive","Math","Congruent","rev","9d10","42px",3.98898404656427
"300","t10",1.04,"RIGHT",18,"[ 2]",2,"ROI_CENTER ",1,"Saccade: 1023ms",".","[ 2]",2,"ROI_CENTER ","t10.edf",51,"Trial: 63",3,2,820077,817822.763,2254,"correct","fig2_1d2_28px.png",1,"0","B > A","1",4,2,"Positive","Math","Incongruent","nor","1d2","28px",2.89037175789616
"301","t10",2.53,"LEFT",25,"[ 2]",2,"ROI_CENTER ",2,"Saccade: 1462ms",".","[ 2]",2,"ROI_CENTER ","t10.edf",51,"Trial: 63",3,2,820077,817822.763,2254,"correct","fig2_1d2_28px.png",1,"0","B > A","1",4,2,"Positive","Math","Incongruent","nor","1d2","28px",3.2188758248682
"302","t10",2.28,"RIGHT",24,"[ 2]",2,"ROI_CENTER ",3,"Saccade: 2126ms",".","[ 2]",2,"ROI_CENTER ","t10.edf",51,"Trial: 63",3,2,820077,817822.763,2254,"correct","fig2_1d2_28px.png",1,"0","B > A","1",4,2,"Positive","Math","Incongruent","nor","1d2","28px",3.17805383034795
"303","t10",1.16,"RIGHT",18,"[ 2]",2,"ROI_CENTER ",1,"Saccade: 1067ms",".","[ 2]",2,"ROI_CENTER ","t10.edf",53,"Trial: 65",1,2,834711,833671.805,1039,"incorrect","fig2_rev_1d2_42px.png",4,"1","B > A","1",4,4,"Positive","Math","Congruent","rev","1d2","42px",2.89037175789616
"304","t10",2.01,"LEFT",24,"[ 2]",2,"ROI_CENTER ",1,"Saccade: 565ms",".","[ 2]",2,"ROI_CENTER ","t10.edf",54,"Trial: 66",3,4,842797,841587.974,1209,"correct","fig2_rev_7d8_28px.png",2,"1","B > A","1",4,4,"Positive","Math","Congruent","rev","7d8","28px",3.17805383034795
"305","t10",5.14,"RIGHT",42,"[ 3]",3,"ROI_RIGHT ",2,"Saccade: 808ms",".","[ 2]",2,"ROI_CENTER ","t10.edf",54,"Trial: 66",3,4,842797,841587.974,1209,"correct","fig2_rev_7d8_28px.png",2,"1","B > A","1",4,4,"Positive","Math","Congruent","rev","7d8","28px",3.73766961828337
"306","t10",3.5,"LEFT",27,"[ 2]",2,"ROI_CENTER ",3,"Saccade: 1051ms",".","[ 3]",3,"ROI_RIGHT ","t10.edf",54,"Trial: 66",3,4,842797,841587.974,1209,"correct","fig2_rev_7d8_28px.png",2,"1","B > A","1",4,4,"Positive","Math","Congruent","rev","7d8","28px",3.29583686600433
"307","t10",0.71,"RIGHT",16,"[ 2]",2,"ROI_CENTER ",1,"Saccade: 907ms",".","[ 2]",2,"ROI_CENTER ","t10.edf",55,"Trial: 67",4,2,850467,848554.208,1912,"correct","fig2_3d4_42px.png",3,"0","B > A","1",4,2,"Positive","Math","Incongruent","nor","3d4","42px",2.77258872223978
"308","t10",2.28,"LEFT",27,"[ 2]",2,"ROI_CENTER ",2,"Saccade: 1233ms",".","[ 2]",2,"ROI_CENTER ","t10.edf",55,"Trial: 67",4,2,850467,848554.208,1912,"correct","fig2_3d4_42px.png",3,"0","B > A","1",4,2,"Positive","Math","Incongruent","nor","3d4","42px",3.29583686600433
"309","t10",2.83,"RIGHT",25,"[ 2]",2,"ROI_CENTER ",3,"Saccade: 1516ms",".","[ 2]",2,"ROI_CENTER ","t10.edf",55,"Trial: 67",4,2,850467,848554.208,1912,"correct","fig2_3d4_42px.png",3,"0","B > A","1",4,2,"Positive","Math","Incongruent","nor","3d4","42px",3.2188758248682
"310","t10",0.54,"LEFT",15,"[ 2]",2,"ROI_CENTER ",4,"Saccade: 1822ms",".","[ 2]",2,"ROI_CENTER ","t10.edf",55,"Trial: 67",4,2,850467,848554.208,1912,"correct","fig2_3d4_42px.png",3,"0","B > A","1",4,2,"Positive","Math","Incongruent","nor","3d4","42px",2.70805020110221
"311","t10",6.67,"RIGHT",62,"[ 3]",3,"ROI_RIGHT ",1,"Saccade: 881ms",".","[ 2]",2,"ROI_CENTER ","t10.edf",56,"Trial: 68",6,4,858419,855820.439,2598,"correct","fig2_9d10_28px.png",1,"1","B < A","2",4,4,"Negative","Math","Congruent","nor","9d10","28px",4.12713438504509
"312","t10",3.66,"RIGHT",32,"[ 3]",3,"ROI_RIGHT ",2,"Saccade: 1110ms",".","[ 3]",3,"ROI_RIGHT ","t10.edf",56,"Trial: 68",6,4,858419,855820.439,2598,"correct","fig2_9d10_28px.png",1,"1","B < A","2",4,4,"Negative","Math","Congruent","nor","9d10","28px",3.46573590279973
"313","t10",12.85,"LEFT",64,"[ 1]",1,"ROI_LEFT ",3,"Saccade: 1330ms",".","[ 3]",3,"ROI_RIGHT ","t10.edf",56,"Trial: 68",6,4,858419,855820.439,2598,"correct","fig2_9d10_28px.png",1,"1","B < A","2",4,4,"Negative","Math","Congruent","nor","9d10","28px",4.15888308335967
"314","t10",6.44,"LEFT",48,"[ 1]",1,"ROI_LEFT ",4,"Saccade: 1705ms",".","[ 2]",2,"ROI_CENTER ","t10.edf",56,"Trial: 68",6,4,858419,855820.439,2598,"correct","fig2_9d10_28px.png",1,"1","B < A","2",4,4,"Negative","Math","Congruent","nor","9d10","28px",3.87120101090789
"315","t10",0.97,"LEFT",14,"[ 1]",1,"ROI_LEFT ",5,"Saccade: 1946ms",".","[ 1]",1,"ROI_LEFT ","t10.edf",56,"Trial: 68",6,4,858419,855820.439,2598,"correct","fig2_9d10_28px.png",1,"1","B < A","2",4,4,"Negative","Math","Congruent","nor","9d10","28px",2.63905732961526
"316","t10",6.07,"RIGHT",48,"[ 1]",1,"ROI_LEFT ",6,"Saccade: 2284ms",".","[ 1]",1,"ROI_LEFT ","t10.edf",56,"Trial: 68",6,4,858419,855820.439,2598,"correct","fig2_9d10_28px.png",1,"1","B < A","2",4,4,"Negative","Math","Congruent","nor","9d10","28px",3.87120101090789
"317","t10",1.39,"RIGHT",18,"[ 2]",2,"ROI_CENTER ",1,"Saccade: 1624ms",".","[ 2]",2,"ROI_CENTER ","t10.edf",57,"Trial: 69",2,4,864782,862953.323,1828,"correct","fig2_rev_3d4_28px.png",2,"1","B > A","1",4,4,"Positive","Math","Congruent","rev","3d4","28px",2.89037175789616
"318","t10",2.42,"LEFT",23,"[ 2]",2,"ROI_CENTER ",2,"Saccade: 1834ms",".","[ 2]",2,"ROI_CENTER ","t10.edf",57,"Trial: 69",2,4,864782,862953.323,1828,"correct","fig2_rev_3d4_28px.png",2,"1","B > A","1",4,4,"Positive","Math","Congruent","rev","3d4","28px",3.13549421592915
"319","t10",0.65,"UP",10,"[ 2]",2,"ROI_CENTER ",1,"Saccade: 511ms",".","[ 2]",2,"ROI_CENTER ","t10.edf",58,"Trial: 70",6,2,871366,869336.275,2029,"correct","fig2_rev_9d10_42px.png",4,"0","B < A","2",4,2,"Negative","Math","Incongruent","rev","9d10","42px",2.30258509299405
"320","t10",9.9,"RIGHT",75,"[ 3]",3,"ROI_RIGHT ",2,"Saccade: 710ms",".","[ 2]",2,"ROI_CENTER ","t10.edf",58,"Trial: 70",6,2,871366,869336.275,2029,"correct","fig2_rev_9d10_42px.png",4,"0","B < A","2",4,2,"Negative","Math","Incongruent","rev","9d10","42px",4.31748811353631
"321","t10",7.47,"LEFT",49,"[ 2]",2,"ROI_CENTER ",3,"Saccade: 1004ms",".","[ 3]",3,"ROI_RIGHT ","t10.edf",58,"Trial: 70",6,2,871366,869336.275,2029,"correct","fig2_rev_9d10_42px.png",4,"0","B < A","2",4,2,"Negative","Math","Incongruent","rev","9d10","42px",3.89182029811063
"322","t10",8.54,"LEFT",48,"[ 1]",1,"ROI_LEFT ",4,"Saccade: 1238ms",".","[ 2]",2,"ROI_CENTER ","t10.edf",58,"Trial: 70",6,2,871366,869336.275,2029,"correct","fig2_rev_9d10_42px.png",4,"0","B < A","2",4,2,"Negative","Math","Incongruent","rev","9d10","42px",3.87120101090789
"323","t10",10.87,"RIGHT",64,"[ 3]",3,"ROI_RIGHT ",5,"Saccade: 1765ms",".","[ 1]",1,"ROI_LEFT ","t10.edf",58,"Trial: 70",6,2,871366,869336.275,2029,"correct","fig2_rev_9d10_42px.png",4,"0","B < A","2",4,2,"Negative","Math","Incongruent","rev","9d10","42px",4.15888308335967
"324","t10",5.51,"RIGHT",40,"[ 3]",3,"ROI_RIGHT ",6,"Saccade: 2006ms",".","[ 3]",3,"ROI_RIGHT ","t10.edf",58,"Trial: 70",6,2,871366,869336.275,2029,"correct","fig2_rev_9d10_42px.png",4,"0","B < A","2",4,2,"Negative","Math","Incongruent","rev","9d10","42px",3.68887945411394
"325","t10",1.26,"RIGHT",18,"[ 2]",2,"ROI_CENTER ",1,"Saccade: 770ms",".","[ 2]",2,"ROI_CENTER ","t10.edf",59,"Trial: 71",4,4,877349,875885.881,1463,"correct","fig2_7d8_42px.png",3,"1","B < A","2",4,4,"Negative","Math","Congruent","nor","7d8","42px",2.89037175789616
"326","t10",3.58,"LEFT",29,"[ 2]",2,"ROI_CENTER ",2,"Saccade: 1006ms",".","[ 2]",2,"ROI_CENTER ","t10.edf",59,"Trial: 71",4,4,877349,875885.881,1463,"correct","fig2_7d8_42px.png",3,"1","B < A","2",4,4,"Negative","Math","Congruent","nor","7d8","42px",3.36729582998647
"327","t10",5.89,"RIGHT",46,"[ 3]",3,"ROI_RIGHT ",3,"Saccade: 1252ms",".","[ 1]",1,"ROI_LEFT ","t10.edf",59,"Trial: 71",4,4,877349,875885.881,1463,"correct","fig2_7d8_42px.png",3,"1","B < A","2",4,4,"Negative","Math","Congruent","nor","7d8","42px",3.8286413964891
"328","t10",4.12,"LEFT",40,"[ 2]",2,"ROI_CENTER ",4,"Saccade: 1477ms",".","[ 3]",3,"ROI_RIGHT ","t10.edf",59,"Trial: 71",4,4,877349,875885.881,1463,"correct","fig2_7d8_42px.png",3,"1","B < A","2",4,4,"Negative","Math","Congruent","nor","7d8","42px",3.68887945411394
"329","t10",1.2,"RIGHT",19,"[ 2]",2,"ROI_CENTER ",1,"Saccade: 772ms",".","[ 2]",2,"ROI_CENTER ","t10.edf",65,"Trial: 77",3,4,947302,945914.904,1387,"correct","fig2_rev_5d6_28px.png",2,"1","A < B","2",3,4,"Negative","Math","Congruent","rev","5d6","28px",2.94443897916644
"330","t10",2.81,"LEFT",32,"[ 2]",2,"ROI_CENTER ",2,"Saccade: 1204ms",".","[ 2]",2,"ROI_CENTER ","t10.edf",65,"Trial: 77",3,4,947302,945914.904,1387,"correct","fig2_rev_5d6_28px.png",2,"1","A < B","2",3,4,"Negative","Math","Congruent","rev","5d6","28px",3.46573590279973
"331","t10",1.63,"RIGHT",20,"[ 2]",2,"ROI_CENTER ",3,"Saccade: 1419ms",".","[ 2]",2,"ROI_CENTER ","t10.edf",65,"Trial: 77",3,4,947302,945914.904,1387,"correct","fig2_rev_5d6_28px.png",2,"1","A < B","2",3,4,"Negative","Math","Congruent","rev","5d6","28px",2.99573227355399
"332","t10",1.3,"RIGHT",18,"[ 2]",2,"ROI_CENTER ",1,"Saccade: 735ms",".","[ 2]",2,"ROI_CENTER ","t10.edf",66,"Trial: 78",2,2,952610,951264.582,1345,"correct","fig2_3d4_28px.png",1,"0","A < B","2",3,2,"Negative","Math","Incongruent","nor","3d4","28px",2.89037175789616
"333","t10",2.19,"LEFT",24,"[ 2]",2,"ROI_CENTER ",2,"Saccade: 1051ms",".","[ 2]",2,"ROI_CENTER ","t10.edf",66,"Trial: 78",2,2,952610,951264.582,1345,"correct","fig2_3d4_28px.png",1,"0","A < B","2",3,2,"Negative","Math","Incongruent","nor","3d4","28px",3.17805383034795
"334","t10",1.57,"RIGHT",21,"[ 2]",2,"ROI_CENTER ",1,"Saccade: 749ms",".","[ 2]",2,"ROI_CENTER ","t10.edf",68,"Trial: 80",5,2,964112,962313.895,1798,"incorrect","fig2_7d8_28px.png",1,"1","A > B","1",3,4,"Positive","Math","Congruent","nor","7d8","28px",3.04452243772342
"335","t10",5.76,"LEFT",43,"[ 1]",1,"ROI_LEFT ",2,"Saccade: 982ms",".","[ 2]",2,"ROI_CENTER ","t10.edf",68,"Trial: 80",5,2,964112,962313.895,1798,"incorrect","fig2_7d8_28px.png",1,"1","A > B","1",3,4,"Positive","Math","Congruent","nor","7d8","28px",3.76120011569356
"336","t10",5.58,"LEFT",42,"[ 1]",1,"ROI_LEFT ",3,"Saccade: 1320ms",".","[ 1]",1,"ROI_LEFT ","t10.edf",68,"Trial: 80",5,2,964112,962313.895,1798,"incorrect","fig2_7d8_28px.png",1,"1","A > B","1",3,4,"Positive","Math","Congruent","nor","7d8","28px",3.73766961828337
"337","t10",17.22,"RIGHT",74,"[ 3]",3,"ROI_RIGHT ",4,"Saccade: 1665ms",".","[ 1]",1,"ROI_LEFT ","t10.edf",68,"Trial: 80",5,2,964112,962313.895,1798,"incorrect","fig2_7d8_28px.png",1,"1","A > B","1",3,4,"Positive","Math","Congruent","nor","7d8","28px",4.30406509320417
"338","t10",11.35,"LEFT",61,"[ 1]",1,"ROI_LEFT ",5,"Saccade: 1909ms",".","[ 3]",3,"ROI_RIGHT ","t10.edf",68,"Trial: 80",5,2,964112,962313.895,1798,"incorrect","fig2_7d8_28px.png",1,"1","A > B","1",3,4,"Positive","Math","Congruent","nor","7d8","28px",4.11087386417331
"339","t10",6.45,"LEFT",45,"[ 1]",1,"ROI_LEFT ",1,"Saccade: 448ms",".","[ 2]",2,"ROI_CENTER ","t10.edf",69,"Trial: 81",3,2,970804,968980.146,1823,"correct","fig2_rev_9d10_28px.png",2,"0","A > B","1",3,2,"Positive","Math","Incongruent","rev","9d10","28px",3.80666248977032
"340","t10",8.09,"RIGHT",48,"[ 2]",2,"ROI_CENTER ",2,"Saccade: 647ms",".","[ 1]",1,"ROI_LEFT ","t10.edf",69,"Trial: 81",3,2,970804,968980.146,1823,"correct","fig2_rev_9d10_28px.png",2,"0","A > B","1",3,2,"Positive","Math","Incongruent","rev","9d10","28px",3.87120101090789
"341","t10",1.86,"LEFT",23,"[ 2]",2,"ROI_CENTER ",3,"Saccade: 1570ms",".","[ 2]",2,"ROI_CENTER ","t10.edf",69,"Trial: 81",3,2,970804,968980.146,1823,"correct","fig2_rev_9d10_28px.png",2,"0","A > B","1",3,2,"Positive","Math","Incongruent","rev","9d10","28px",3.13549421592915
"342","t10",0.54,"RIGHT",14,"[ 2]",2,"ROI_CENTER ",1,"Saccade: 900ms",".","[ 2]",2,"ROI_CENTER ","t10.edf",70,"Trial: 82",4,2,978309,975996.382,2312,"correct","fig2_1d2_42px.png",3,"0","A < B","2",3,2,"Negative","Math","Incongruent","nor","1d2","42px",2.63905732961526
"343","t10",0.84,"LEFT",14,"[ 2]",2,"ROI_CENTER ",2,"Saccade: 1262ms",".","[ 2]",2,"ROI_CENTER ","t10.edf",70,"Trial: 82",4,2,978309,975996.382,2312,"correct","fig2_1d2_42px.png",3,"0","A < B","2",3,2,"Negative","Math","Incongruent","nor","1d2","42px",2.63905732961526
"344","t10",1.48,"RIGHT",21,"[ 2]",2,"ROI_CENTER ",3,"Saccade: 1758ms",".","[ 2]",2,"ROI_CENTER ","t10.edf",70,"Trial: 82",4,2,978309,975996.382,2312,"correct","fig2_1d2_42px.png",3,"0","A < B","2",3,2,"Negative","Math","Incongruent","nor","1d2","42px",3.04452243772342
"345","t10",2.08,"LEFT",23,"[ 2]",2,"ROI_CENTER ",4,"Saccade: 2363ms",".","[ 2]",2,"ROI_CENTER ","t10.edf",70,"Trial: 82",4,2,978309,975996.382,2312,"correct","fig2_1d2_42px.png",3,"0","A < B","2",3,2,"Negative","Math","Incongruent","nor","1d2","42px",3.13549421592915
"346","t10",1.71,"LEFT",22,"[ 2]",2,"ROI_CENTER ",1,"Saccade: 435ms",".","[ 2]",2,"ROI_CENTER ","t10.edf",71,"Trial: 83",3,4,984035,982812.651,1222,"correct","fig2_rev_7d8_42px.png",4,"1","A < B","2",3,4,"Negative","Math","Congruent","rev","7d8","42px",3.09104245335832
"347","t10",3.63,"RIGHT",34,"[ 2]",2,"ROI_CENTER ",2,"Saccade: 700ms",".","[ 2]",2,"ROI_CENTER ","t10.edf",71,"Trial: 83",3,4,984035,982812.651,1222,"correct","fig2_rev_7d8_42px.png",4,"1","A < B","2",3,4,"Negative","Math","Congruent","rev","7d8","42px",3.52636052461616
"348","t10",2.26,"LEFT",22,"[ 2]",2,"ROI_CENTER ",3,"Saccade: 1147ms",".","[ 2]",2,"ROI_CENTER ","t10.edf",71,"Trial: 83",3,4,984035,982812.651,1222,"correct","fig2_rev_7d8_42px.png",4,"1","A < B","2",3,4,"Negative","Math","Congruent","rev","7d8","42px",3.09104245335832
"349","t10",1.85,"RIGHT",22,"[ 2]",2,"ROI_CENTER ",1,"Saccade: 929ms",".","[ 2]",2,"ROI_CENTER ","t10.edf",72,"Trial: 84",2,2,989850,988545.624,1304,"correct","fig2_9d10_42px.png",3,"0","A < B","2",3,2,"Negative","Math","Incongruent","nor","9d10","42px",3.09104245335832
"350","t10",2.19,"LEFT",24,"[ 2]",2,"ROI_CENTER ",2,"Saccade: 1252ms",".","[ 2]",2,"ROI_CENTER ","t10.edf",72,"Trial: 84",2,2,989850,988545.624,1304,"correct","fig2_9d10_42px.png",3,"0","A < B","2",3,2,"Negative","Math","Incongruent","nor","9d10","42px",3.17805383034795
"351","t10",0.85,"LEFT",26,"[ 2]",2,"ROI_CENTER ",1,"Saccade: 1038ms","blank_screen","[ 2]",2,"ROI_CENTER ","t10.edf",74,"Trial: 86",1,2,1000553,999594.954,958,"correct","fig2_rev_1d2_28px.png",2,"0","A > B","1",3,2,"Positive","Math","Incongruent","rev","1d2","28px",3.25809653802148
"352","t10",1.44,"RIGHT",21,"[ 2]",2,"ROI_CENTER ",1,"Saccade: 566ms",".","[ 2]",2,"ROI_CENTER ","t10.edf",76,"Trial: 88",6,2,1012506,1010327.606,2178,"correct","fig2_rev_7d8_42px.png",4,"0","A > B","1",3,2,"Positive","Math","Incongruent","rev","7d8","42px",3.04452243772342
"353","t10",1.79,"UP",22,"[ 2]",2,"ROI_CENTER ",2,"Saccade: 791ms",".","[ 2]",2,"ROI_CENTER ","t10.edf",76,"Trial: 88",6,2,1012506,1010327.606,2178,"correct","fig2_rev_7d8_42px.png",4,"0","A > B","1",3,2,"Positive","Math","Incongruent","rev","7d8","42px",3.09104245335832
"354","t10",5.87,"RIGHT",45,"[ 3]",3,"ROI_RIGHT ",3,"Saccade: 995ms",".","[ 2]",2,"ROI_CENTER ","t10.edf",76,"Trial: 88",6,2,1012506,1010327.606,2178,"correct","fig2_rev_7d8_42px.png",4,"0","A > B","1",3,2,"Positive","Math","Incongruent","rev","7d8","42px",3.80666248977032
"355","t10",16.47,"LEFT",74,"[ 1]",1,"ROI_LEFT ",4,"Saccade: 1208ms",".","[ 3]",3,"ROI_RIGHT ","t10.edf",76,"Trial: 88",6,2,1012506,1010327.606,2178,"correct","fig2_rev_7d8_42px.png",4,"0","A > B","1",3,2,"Positive","Math","Incongruent","rev","7d8","42px",4.30406509320417
"356","t10",5.74,"RIGHT",42,"[ 1]",1,"ROI_LEFT ",5,"Saccade: 1798ms",".","[ 1]",1,"ROI_LEFT ","t10.edf",76,"Trial: 88",6,2,1012506,1010327.606,2178,"correct","fig2_rev_7d8_42px.png",4,"0","A > B","1",3,2,"Positive","Math","Incongruent","rev","7d8","42px",3.73766961828337
"357","t10",11.73,"RIGHT",63,"[ 3]",3,"ROI_RIGHT ",6,"Saccade: 2039ms",".","[ 2]",2,"ROI_CENTER ","t10.edf",76,"Trial: 88",6,2,1012506,1010327.606,2178,"correct","fig2_rev_7d8_42px.png",4,"0","A > B","1",3,2,"Positive","Math","Incongruent","rev","7d8","42px",4.14313472639153
"358","t10",1.52,"RIGHT",20,"[ 2]",2,"ROI_CENTER ",1,"Saccade: 521ms",".","[ 2]",2,"ROI_CENTER ","t10.edf",78,"Trial: 90",2,2,1023019,1021876.905,1142,"correct","fig2_rev_5d6_28px.png",2,"0","A > B","1",3,2,"Positive","Math","Incongruent","rev","5d6","28px",2.99573227355399
"359","t10",2.4,"LEFT",24,"[ 2]",2,"ROI_CENTER ",2,"Saccade: 1057ms",".","[ 2]",2,"ROI_CENTER ","t10.edf",78,"Trial: 90",2,2,1023019,1021876.905,1142,"correct","fig2_rev_5d6_28px.png",2,"0","A > B","1",3,2,"Positive","Math","Incongruent","rev","5d6","28px",3.17805383034795
